"rt","stimulus","response","trial_type","trial_index","time_elapsed","internal_node_id","relevant","online","block","round","locationID","locationScreen","StimID","StimImage","coordID","coordScreen","respID","reward"
"200","<img src = 'Images/Feedback.png' style = 'width: 1440px; position: fixed; left: 0px; top: 0px'></img><img src= Images/Bulbfish.png style = 'width: 48px; position: fixed; left: 696px; bottom: 729px'></img><div class = 'line' style = 'transform-origin: top left; transform: rotate(202deg); width: 106.19999999999999px; height: 1px; background: black; position: fixed; top: 148.5px; left: 720px;'></div><img src = 'Images/Dot.png' style = 'width: 7.2px; position: fixed; left: 745.4580313769487px; top: 224.7362850619708px'></img><img src = 'Images/Heap.png' style = 'width: 72px; position: fixed; left: 504px; bottom: 87.75px'></img><img src= Images/Bulbfish.png style = 'width: 48px; position: fixed; left: -107.99999999999932px; bottom: 90px'></img><img src = 'Images/Cage.png' style = 'width: 144px; position: fixed; left: 648px; top: 746.9999999999986px'></img>","null","html-keyboard-response","0","7993","0.0-3.0-0.0-3.0-0.99","1","true","0","1","4","290","2","Images/Bulbfish.png","0.375","540","0.5","0"
"200","<img src = 'Images/Feedback.png' style = 'width: 1440px; position: fixed; left: 0px; top: 0px'></img><img src= Images/Bulbfish.png style = 'width: 48px; position: fixed; left: 696px; bottom: 729px'></img><div class = 'line' style = 'transform-origin: top left; transform: rotate(404deg); width: 106.19999999999999px; height: 1px; background: black; position: fixed; top: 148.5px; left: 720px;'></div><img src = 'Images/Dot.png' style = 'width: 7.2px; position: fixed; left: 745.4580313769487px; top: 224.7362850619708px'></img><img src = 'Images/Heap.png' style = 'width: 72px; position: fixed; left: 504px; bottom: 87.75px'></img><img src= Images/Bulbfish.png style = 'width: 48px; position: fixed; left: -107.99999999999932px; bottom: 90px'></img><img src = 'Images/Cage.png' style = 'width: 144px; position: fixed; left: 648px; top: 746.9999999999986px'></img>","null","html-keyboard-response","1","9706","0.0-3.0-0.0-3.1-0.199","1","true","0","1","4","290","2","Images/Bulbfish.png","0.375","540","0.5","0"
"200","<img src = 'Images/Feedback.png' style = 'width: 1440px; position: fixed; left: 0px; top: 0px'></img><img src= Images/HighFish.png style = 'width: 48px; position: fixed; left: 696px; bottom: 729px'></img><div class = 'line' style = 'transform-origin: top left; transform: rotate(606deg); width: 106.19999999999999px; height: 1px; background: black; position: fixed; top: 148.5px; left: 720px;'></div><img src = 'Images/Dot.png' style = 'width: 7.2px; position: fixed; left: 745.4580313769487px; top: 224.7362850619708px'></img><img src = 'Images/Heap.png' style = 'width: 72px; position: fixed; left: 1224px; bottom: 87.75px'></img><img src= Images/HighFish.png style = 'width: 48px; position: fixed; left: 1860.0000000000055px; bottom: 90px'></img><img src = 'Images/Cage.png' style = 'width: 144px; position: fixed; left: 648px; top: 746.9999999999986px'></img>","null","html-keyboard-response","2","11490","0.0-3.0-0.0-3.2-0.299","1","true","0","1","4","290","5","Images/HighFish.png","0.875","1260","0.5","0"
"200","<img src = 'Images/Feedback.png' style = 'width: 1440px; position: fixed; left: 0px; top: 0px'></img><img src= Images/HighFish.png style = 'width: 48px; position: fixed; left: 696px; bottom: 729px'></img><div class = 'line' style = 'transform-origin: top left; transform: rotate(808deg); width: 106.19999999999999px; height: 1px; background: black; position: fixed; top: 148.5px; left: 720px;'></div><img src = 'Images/Dot.png' style = 'width: 7.2px; position: fixed; left: 745.4580313769487px; top: 224.7362850619708px'></img><img src = 'Images/Heap.png' style = 'width: 72px; position: fixed; left: 1224px; bottom: 87.75px'></img><img src= Images/HighFish.png style = 'width: 48px; position: fixed; left: 1860.0000000000055px; bottom: 90px'></img><img src = 'Images/Cage.png' style = 'width: 144px; position: fixed; left: 648px; top: 746.9999999999986px'></img>","null","html-keyboard-response","3","13272","0.0-3.0-0.0-3.3-0.399","1","true","0","1","4","290","5","Images/HighFish.png","0.875","1260","0.5","0"
"200","<img src = 'Images/Feedback.png' style = 'width: 1440px; position: fixed; left: 0px; top: 0px'></img><img src= Images/Seahorse.png style = 'width: 48px; position: fixed; left: 696px; bottom: 729px'></img><div class = 'line' style = 'transform-origin: top left; transform: rotate(1010deg); width: 106.19999999999999px; height: 1px; background: black; position: fixed; top: 148.5px; left: 720px;'></div><img src = 'Images/Dot.png' style = 'width: 7.2px; position: fixed; left: 745.4580313769487px; top: 224.7362850619708px'></img><img src = 'Images/Heap.png' style = 'width: 72px; position: fixed; left: 1044px; bottom: 87.75px'></img><img src= Images/Seahorse.png style = 'width: 48px; position: fixed; left: 1680.0000000000055px; bottom: 90px'></img><img src = 'Images/Cage.png' style = 'width: 144px; position: fixed; left: 648px; top: 746.9999999999986px'></img>","null","html-keyboard-response","4","15042","0.0-3.0-0.0-3.4-0.499","1","true","0","1","4","290","4","Images/Seahorse.png","0.75","1080","0.5","0"
"200","<img src = 'Images/Feedback.png' style = 'width: 1440px; position: fixed; left: 0px; top: 0px'></img><img src= Images/Shell.png style = 'width: 48px; position: fixed; left: 696px; bottom: 729px'></img><div class = 'line' style = 'transform-origin: top left; transform: rotate(1212deg); width: 106.19999999999999px; height: 1px; background: black; position: fixed; top: 148.5px; left: 720px;'></div><img src = 'Images/Dot.png' style = 'width: 7.2px; position: fixed; left: 745.4580313769487px; top: 224.7362850619708px'></img><img src = 'Images/Heap.png' style = 'width: 72px; position: fixed; left: 864px; bottom: 87.75px'></img><img src= Images/Shell.png style = 'width: 48px; position: fixed; left: 1500.0000000000025px; bottom: 90px'></img><img src = 'Images/Cage.png' style = 'width: 144px; position: fixed; left: 648px; top: 746.9999999999986px'></img>","null","html-keyboard-response","5","16813","0.0-3.0-0.0-3.5-0.599","1","true","0","1","4","290","3","Images/Shell.png","0.625","900","0.5","0"
"200","<img src = 'Images/Feedback.png' style = 'width: 1440px; position: fixed; left: 0px; top: 0px'></img><img src= Images/HighFish.png style = 'width: 48px; position: fixed; left: 696px; bottom: 729px'></img><div class = 'line' style = 'transform-origin: top left; transform: rotate(1414deg); width: 106.19999999999999px; height: 1px; background: black; position: fixed; top: 148.5px; left: 720px;'></div><img src = 'Images/Dot.png' style = 'width: 7.2px; position: fixed; left: 745.4580313769487px; top: 224.7362850619708px'></img><img src = 'Images/Heap.png' style = 'width: 72px; position: fixed; left: 1224px; bottom: 87.75px'></img><img src= Images/HighFish.png style = 'width: 48px; position: fixed; left: 1860.0000000000055px; bottom: 90px'></img><img src = 'Images/Cage.png' style = 'width: 144px; position: fixed; left: 648px; top: 746.9999999999986px'></img>","null","html-keyboard-response","6","18596","0.0-3.0-0.0-3.6-0.699","1","true","0","1","4","290","5","Images/HighFish.png","0.875","1260","0.5","0"
"200","<img src = 'Images/Feedback.png' style = 'width: 1440px; position: fixed; left: 0px; top: 0px'></img><img src= Images/crab.png style = 'width: 48px; position: fixed; left: 696px; bottom: 729px'></img><div class = 'line' style = 'transform-origin: top left; transform: rotate(1616deg); width: 106.19999999999999px; height: 1px; background: black; position: fixed; top: 148.5px; left: 720px;'></div><img src = 'Images/Dot.png' style = 'width: 7.2px; position: fixed; left: 745.4580313769487px; top: 224.7362850619708px'></img><img src = 'Images/Heap.png' style = 'width: 72px; position: fixed; left: 324px; bottom: 87.75px'></img><img src= Images/crab.png style = 'width: 48px; position: fixed; left: -287.99999999999955px; bottom: 90px'></img><img src = 'Images/Cage.png' style = 'width: 144px; position: fixed; left: 648px; top: 746.9999999999986px'></img>","null","html-keyboard-response","7","20356","0.0-3.0-0.0-3.7-0.799","1","true","0","1","4","290","1","Images/crab.png","0.25","360","0.5","0"
"200","<img src = 'Images/Feedback.png' style = 'width: 1440px; position: fixed; left: 0px; top: 0px'></img><img src= Images/crab.png style = 'width: 48px; position: fixed; left: 696px; bottom: 729px'></img><div class = 'line' style = 'transform-origin: top left; transform: rotate(1818deg); width: 106.19999999999999px; height: 1px; background: black; position: fixed; top: 148.5px; left: 720px;'></div><img src = 'Images/Dot.png' style = 'width: 7.2px; position: fixed; left: 745.4580313769487px; top: 224.7362850619708px'></img><img src = 'Images/Heap.png' style = 'width: 72px; position: fixed; left: 324px; bottom: 87.75px'></img><img src= Images/crab.png style = 'width: 48px; position: fixed; left: -287.99999999999955px; bottom: 90px'></img><img src = 'Images/Cage.png' style = 'width: 144px; position: fixed; left: 648px; top: 746.9999999999986px'></img>","null","html-keyboard-response","8","22132","0.0-3.0-0.0-3.8-0.899","1","true","0","1","4","290","1","Images/crab.png","0.25","360","0.5","0"
"200","<img src = 'Images/Feedback.png' style = 'width: 1440px; position: fixed; left: 0px; top: 0px'></img><img src= Images/Seastar.png style = 'width: 48px; position: fixed; left: 696px; bottom: 729px'></img><div class = 'line' style = 'transform-origin: top left; transform: rotate(2020deg); width: 106.19999999999999px; height: 1px; background: black; position: fixed; top: 148.5px; left: 720px;'></div><img src = 'Images/Dot.png' style = 'width: 7.2px; position: fixed; left: 745.4580313769487px; top: 224.7362850619708px'></img><img src = 'Images/Heap.png' style = 'width: 72px; position: fixed; left: 144px; bottom: 87.75px'></img><img src= Images/Seastar.png style = 'width: 48px; position: fixed; left: -467.9999999999999px; bottom: 90px'></img><img src = 'Images/Cage.png' style = 'width: 144px; position: fixed; left: 648px; top: 746.9999999999986px'></img>","null","html-keyboard-response","9","23923","0.0-3.0-0.0-3.9-0.999","1","true","0","1","4","290","0","Images/Seastar.png","0.125","180","0.5","0"
"200","<img src = 'Images/Feedback.png' style = 'width: 1440px; position: fixed; left: 0px; top: 0px'></img><img src= Images/Bulbfish.png style = 'width: 48px; position: fixed; left: 696px; bottom: 729px'></img><div class = 'line' style = 'transform-origin: top left; transform: rotate(2222deg); width: 106.19999999999999px; height: 1px; background: black; position: fixed; top: 148.5px; left: 720px;'></div><img src = 'Images/Dot.png' style = 'width: 7.2px; position: fixed; left: 745.4580313769487px; top: 224.7362850619708px'></img><img src = 'Images/Heap.png' style = 'width: 72px; position: fixed; left: 504px; bottom: 87.75px'></img><img src= Images/Bulbfish.png style = 'width: 48px; position: fixed; left: -107.99999999999932px; bottom: 90px'></img><img src = 'Images/Cage.png' style = 'width: 144px; position: fixed; left: 648px; top: 746.9999999999986px'></img>","null","html-keyboard-response","10","25696","0.0-3.0-0.0-3.10-0.1099","1","true","0","1","4","290","2","Images/Bulbfish.png","0.375","540","0.5","0"
"200","<img src = 'Images/Feedback.png' style = 'width: 1440px; position: fixed; left: 0px; top: 0px'></img><img src= Images/Seahorse.png style = 'width: 48px; position: fixed; left: 696px; bottom: 729px'></img><div class = 'line' style = 'transform-origin: top left; transform: rotate(2424deg); width: 106.19999999999999px; height: 1px; background: black; position: fixed; top: 148.5px; left: 720px;'></div><img src = 'Images/Dot.png' style = 'width: 7.2px; position: fixed; left: 745.4580313769487px; top: 224.7362850619708px'></img><img src = 'Images/Heap.png' style = 'width: 72px; position: fixed; left: 1044px; bottom: 87.75px'></img><img src= Images/Seahorse.png style = 'width: 48px; position: fixed; left: 1680.0000000000055px; bottom: 90px'></img><img src = 'Images/Cage.png' style = 'width: 144px; position: fixed; left: 648px; top: 746.9999999999986px'></img>","null","html-keyboard-response","11","27473","0.0-3.0-0.0-3.11-0.1199","1","true","0","1","4","290","4","Images/Seahorse.png","0.75","1080","0.5","0"
"200","<img src = 'Images/Feedback.png' style = 'width: 1440px; position: fixed; left: 0px; top: 0px'></img><img src= Images/Seastar.png style = 'width: 48px; position: fixed; left: 696px; bottom: 729px'></img><div class = 'line' style = 'transform-origin: top left; transform: rotate(2626deg); width: 106.19999999999999px; height: 1px; background: black; position: fixed; top: 148.5px; left: 720px;'></div><img src = 'Images/Dot.png' style = 'width: 7.2px; position: fixed; left: 745.4580313769487px; top: 224.7362850619708px'></img><img src = 'Images/Heap.png' style = 'width: 72px; position: fixed; left: 144px; bottom: 87.75px'></img><img src= Images/Seastar.png style = 'width: 48px; position: fixed; left: -467.9999999999999px; bottom: 90px'></img><img src = 'Images/Cage.png' style = 'width: 144px; position: fixed; left: 648px; top: 746.9999999999986px'></img>","null","html-keyboard-response","12","29238","0.0-3.0-0.0-3.12-0.1299","1","true","0","1","4","290","0","Images/Seastar.png","0.125","180","0.5","0"
"200","<img src = 'Images/Feedback.png' style = 'width: 1440px; position: fixed; left: 0px; top: 0px'></img><img src= Images/Seastar.png style = 'width: 48px; position: fixed; left: 696px; bottom: 729px'></img><div class = 'line' style = 'transform-origin: top left; transform: rotate(2828deg); width: 106.19999999999999px; height: 1px; background: black; position: fixed; top: 148.5px; left: 720px;'></div><img src = 'Images/Dot.png' style = 'width: 7.2px; position: fixed; left: 745.4580313769487px; top: 224.7362850619708px'></img><img src = 'Images/Heap.png' style = 'width: 72px; position: fixed; left: 144px; bottom: 87.75px'></img><img src= Images/Seastar.png style = 'width: 48px; position: fixed; left: -467.9999999999999px; bottom: 90px'></img><img src = 'Images/Cage.png' style = 'width: 144px; position: fixed; left: 648px; top: 746.9999999999986px'></img>","null","html-keyboard-response","13","30980","0.0-3.0-0.0-3.13-0.1399","1","true","0","1","4","290","0","Images/Seastar.png","0.125","180","0.5","0"
"200","<img src = 'Images/Feedback.png' style = 'width: 1440px; position: fixed; left: 0px; top: 0px'></img><img src= Images/crab.png style = 'width: 48px; position: fixed; left: 696px; bottom: 729px'></img><div class = 'line' style = 'transform-origin: top left; transform: rotate(3030deg); width: 106.19999999999999px; height: 1px; background: black; position: fixed; top: 148.5px; left: 720px;'></div><img src = 'Images/Dot.png' style = 'width: 7.2px; position: fixed; left: 745.4580313769487px; top: 224.7362850619708px'></img><img src = 'Images/Heap.png' style = 'width: 72px; position: fixed; left: 324px; bottom: 87.75px'></img><img src= Images/crab.png style = 'width: 48px; position: fixed; left: -287.99999999999955px; bottom: 90px'></img><img src = 'Images/Cage.png' style = 'width: 144px; position: fixed; left: 648px; top: 746.9999999999986px'></img>","null","html-keyboard-response","14","32755","0.0-3.0-0.0-3.14-0.1499","1","true","0","1","4","290","1","Images/crab.png","0.25","360","0.5","0"
"200","<img src = 'Images/Feedback.png' style = 'width: 1440px; position: fixed; left: 0px; top: 0px'></img><img src= Images/Seahorse.png style = 'width: 48px; position: fixed; left: 696px; bottom: 729px'></img><div class = 'line' style = 'transform-origin: top left; transform: rotate(3232deg); width: 106.19999999999999px; height: 1px; background: black; position: fixed; top: 148.5px; left: 720px;'></div><img src = 'Images/Dot.png' style = 'width: 7.2px; position: fixed; left: 745.4580313769487px; top: 224.7362850619708px'></img><img src = 'Images/Heap.png' style = 'width: 72px; position: fixed; left: 1044px; bottom: 87.75px'></img><img src= Images/Seahorse.png style = 'width: 48px; position: fixed; left: 1680.0000000000055px; bottom: 90px'></img><img src = 'Images/Cage.png' style = 'width: 144px; position: fixed; left: 648px; top: 746.9999999999986px'></img>","null","html-keyboard-response","15","34555","0.0-3.0-0.0-3.15-0.1599","1","true","0","1","4","290","4","Images/Seahorse.png","0.75","1080","0.5","0"
"200","<img src = 'Images/Feedback.png' style = 'width: 1440px; position: fixed; left: 0px; top: 0px'></img><img src= Images/Shell.png style = 'width: 48px; position: fixed; left: 696px; bottom: 729px'></img><div class = 'line' style = 'transform-origin: top left; transform: rotate(3434deg); width: 106.19999999999999px; height: 1px; background: black; position: fixed; top: 148.5px; left: 720px;'></div><img src = 'Images/Dot.png' style = 'width: 7.2px; position: fixed; left: 745.4580313769487px; top: 224.7362850619708px'></img><img src = 'Images/Heap.png' style = 'width: 72px; position: fixed; left: 864px; bottom: 87.75px'></img><img src= Images/Shell.png style = 'width: 48px; position: fixed; left: 1500.0000000000025px; bottom: 90px'></img><img src = 'Images/Cage.png' style = 'width: 144px; position: fixed; left: 648px; top: 746.9999999999986px'></img>","null","html-keyboard-response","16","36314","0.0-3.0-0.0-3.16-0.1699","1","true","0","1","4","290","3","Images/Shell.png","0.625","900","0.5","0"
"200","<img src = 'Images/Feedback.png' style = 'width: 1440px; position: fixed; left: 0px; top: 0px'></img><img src= Images/Shell.png style = 'width: 48px; position: fixed; left: 696px; bottom: 729px'></img><div class = 'line' style = 'transform-origin: top left; transform: rotate(3636deg); width: 106.19999999999999px; height: 1px; background: black; position: fixed; top: 148.5px; left: 720px;'></div><img src = 'Images/Dot.png' style = 'width: 7.2px; position: fixed; left: 745.4580313769487px; top: 224.7362850619708px'></img><img src = 'Images/Heap.png' style = 'width: 72px; position: fixed; left: 864px; bottom: 87.75px'></img><img src= Images/Shell.png style = 'width: 48px; position: fixed; left: 1500.0000000000025px; bottom: 90px'></img><img src = 'Images/Cage.png' style = 'width: 144px; position: fixed; left: 648px; top: 746.9999999999986px'></img>","null","html-keyboard-response","17","38106","0.0-3.0-0.0-3.17-0.1799","1","true","0","1","4","290","3","Images/Shell.png","0.625","900","0.5","0"
"200","<img src = 'Images/Feedback.png' style = 'width: 1440px; position: fixed; left: 0px; top: 0px'></img><img src= Images/Shell.png style = 'width: 48px; position: fixed; left: 696px; bottom: 729px'></img><div class = 'line' style = 'transform-origin: top left; transform: rotate(202deg); width: 106.19999999999999px; height: 1px; background: black; position: fixed; top: 148.5px; left: 720px;'></div><img src = 'Images/Dot.png' style = 'width: 7.2px; position: fixed; left: 636.5637149380292px; top: 115.84196862305117px'></img><img src = 'Images/Heap.png' style = 'width: 72px; position: fixed; left: 864px; bottom: 87.75px'></img><img src= Images/Shell.png style = 'width: 48px; position: fixed; left: 1500.0000000000025px; bottom: 90px'></img><img src = 'Images/Cage.png' style = 'width: 144px; position: fixed; left: 648px; top: 746.9999999999986px'></img>","null","html-keyboard-response","18","41785","0.0-3.0-0.0-3.18-0.1899","1","true","0","1","7","160","3","Images/Shell.png","0.625","900","0.5","0"
"200","<img src = 'Images/Feedback.png' style = 'width: 1440px; position: fixed; left: 0px; top: 0px'></img><img src= Images/Seahorse.png style = 'width: 48px; position: fixed; left: 696px; bottom: 729px'></img><div class = 'line' style = 'transform-origin: top left; transform: rotate(404deg); width: 106.19999999999999px; height: 1px; background: black; position: fixed; top: 148.5px; left: 720px;'></div><img src = 'Images/Dot.png' style = 'width: 7.2px; position: fixed; left: 636.5637149380292px; top: 115.84196862305117px'></img><img src = 'Images/Heap.png' style = 'width: 72px; position: fixed; left: 144px; bottom: 87.75px'></img><img src= Images/Seahorse.png style = 'width: 48px; position: fixed; left: -467.9999999999999px; bottom: 90px'></img><img src = 'Images/Cage.png' style = 'width: 144px; position: fixed; left: 648px; top: 746.9999999999986px'></img>","null","html-keyboard-response","19","43557","0.0-3.0-0.0-3.19-0.1999","1","true","0","1","7","160","4","Images/Seahorse.png","0.125","180","0.5","0"
"200","<img src = 'Images/Feedback.png' style = 'width: 1440px; position: fixed; left: 0px; top: 0px'></img><img src= Images/Bulbfish.png style = 'width: 48px; position: fixed; left: 696px; bottom: 729px'></img><div class = 'line' style = 'transform-origin: top left; transform: rotate(606deg); width: 106.19999999999999px; height: 1px; background: black; position: fixed; top: 148.5px; left: 720px;'></div><img src = 'Images/Dot.png' style = 'width: 7.2px; position: fixed; left: 636.5637149380292px; top: 115.84196862305117px'></img><img src = 'Images/Heap.png' style = 'width: 72px; position: fixed; left: 1044px; bottom: 87.75px'></img><img src= Images/Bulbfish.png style = 'width: 48px; position: fixed; left: 1680.0000000000055px; bottom: 90px'></img><img src = 'Images/Cage.png' style = 'width: 144px; position: fixed; left: 648px; top: 746.9999999999986px'></img>","null","html-keyboard-response","20","45344","0.0-3.0-0.0-3.20-0.2099","1","true","0","1","7","160","2","Images/Bulbfish.png","0.75","1080","0.5","0"
"200","<img src = 'Images/Feedback.png' style = 'width: 1440px; position: fixed; left: 0px; top: 0px'></img><img src= Images/Bulbfish.png style = 'width: 48px; position: fixed; left: 696px; bottom: 729px'></img><div class = 'line' style = 'transform-origin: top left; transform: rotate(808deg); width: 106.19999999999999px; height: 1px; background: black; position: fixed; top: 148.5px; left: 720px;'></div><img src = 'Images/Dot.png' style = 'width: 7.2px; position: fixed; left: 636.5637149380292px; top: 115.84196862305117px'></img><img src = 'Images/Heap.png' style = 'width: 72px; position: fixed; left: 1044px; bottom: 87.75px'></img><img src= Images/Bulbfish.png style = 'width: 48px; position: fixed; left: 1680.0000000000055px; bottom: 90px'></img><img src = 'Images/Cage.png' style = 'width: 144px; position: fixed; left: 648px; top: 746.9999999999986px'></img>","null","html-keyboard-response","21","47139","0.0-3.0-0.0-3.21-0.2199","1","true","0","1","7","160","2","Images/Bulbfish.png","0.75","1080","0.5","0"
"200","<img src = 'Images/Feedback.png' style = 'width: 1440px; position: fixed; left: 0px; top: 0px'></img><img src= Images/HighFish.png style = 'width: 48px; position: fixed; left: 696px; bottom: 729px'></img><div class = 'line' style = 'transform-origin: top left; transform: rotate(1010deg); width: 106.19999999999999px; height: 1px; background: black; position: fixed; top: 148.5px; left: 720px;'></div><img src = 'Images/Dot.png' style = 'width: 7.2px; position: fixed; left: 636.5637149380292px; top: 115.84196862305117px'></img><img src = 'Images/Heap.png' style = 'width: 72px; position: fixed; left: 324px; bottom: 87.75px'></img><img src= Images/HighFish.png style = 'width: 48px; position: fixed; left: -287.99999999999955px; bottom: 90px'></img><img src = 'Images/Cage.png' style = 'width: 144px; position: fixed; left: 648px; top: 746.9999999999986px'></img>","null","html-keyboard-response","22","48896","0.0-3.0-0.0-3.22-0.2299","1","true","0","1","7","160","5","Images/HighFish.png","0.25","360","0.5","0"
"200","<img src = 'Images/Feedback.png' style = 'width: 1440px; position: fixed; left: 0px; top: 0px'></img><img src= Images/Seastar.png style = 'width: 48px; position: fixed; left: 696px; bottom: 729px'></img><div class = 'line' style = 'transform-origin: top left; transform: rotate(1212deg); width: 106.19999999999999px; height: 1px; background: black; position: fixed; top: 148.5px; left: 720px;'></div><img src = 'Images/Dot.png' style = 'width: 7.2px; position: fixed; left: 636.5637149380292px; top: 115.84196862305117px'></img><img src = 'Images/Heap.png' style = 'width: 72px; position: fixed; left: 504px; bottom: 87.75px'></img><img src= Images/Seastar.png style = 'width: 48px; position: fixed; left: -107.99999999999932px; bottom: 90px'></img><img src = 'Images/Cage.png' style = 'width: 144px; position: fixed; left: 648px; top: 746.9999999999986px'></img>","null","html-keyboard-response","23","50682","0.0-3.0-0.0-3.23-0.2399","1","true","0","1","7","160","0","Images/Seastar.png","0.375","540","0.5","0"
"200","<img src = 'Images/Feedback.png' style = 'width: 1440px; position: fixed; left: 0px; top: 0px'></img><img src= Images/Seahorse.png style = 'width: 48px; position: fixed; left: 696px; bottom: 729px'></img><div class = 'line' style = 'transform-origin: top left; transform: rotate(1414deg); width: 106.19999999999999px; height: 1px; background: black; position: fixed; top: 148.5px; left: 720px;'></div><img src = 'Images/Dot.png' style = 'width: 7.2px; position: fixed; left: 636.5637149380292px; top: 115.84196862305117px'></img><img src = 'Images/Heap.png' style = 'width: 72px; position: fixed; left: 144px; bottom: 87.75px'></img><img src= Images/Seahorse.png style = 'width: 48px; position: fixed; left: -467.9999999999999px; bottom: 90px'></img><img src = 'Images/Cage.png' style = 'width: 144px; position: fixed; left: 648px; top: 746.9999999999986px'></img>","null","html-keyboard-response","24","52456","0.0-3.0-0.0-3.24-0.2499","1","true","0","1","7","160","4","Images/Seahorse.png","0.125","180","0.5","0"
"200","<img src = 'Images/Feedback.png' style = 'width: 1440px; position: fixed; left: 0px; top: 0px'></img><img src= Images/crab.png style = 'width: 48px; position: fixed; left: 696px; bottom: 729px'></img><div class = 'line' style = 'transform-origin: top left; transform: rotate(1616deg); width: 106.19999999999999px; height: 1px; background: black; position: fixed; top: 148.5px; left: 720px;'></div><img src = 'Images/Dot.png' style = 'width: 7.2px; position: fixed; left: 636.5637149380292px; top: 115.84196862305117px'></img><img src = 'Images/Heap.png' style = 'width: 72px; position: fixed; left: 1224px; bottom: 87.75px'></img><img src= Images/crab.png style = 'width: 48px; position: fixed; left: 1860.0000000000055px; bottom: 90px'></img><img src = 'Images/Cage.png' style = 'width: 144px; position: fixed; left: 648px; top: 746.9999999999986px'></img>","null","html-keyboard-response","25","54230","0.0-3.0-0.0-3.25-0.2599","1","true","0","1","7","160","1","Images/crab.png","0.875","1260","0.5","0"
"200","<img src = 'Images/Feedback.png' style = 'width: 1440px; position: fixed; left: 0px; top: 0px'></img><img src= Images/Shell.png style = 'width: 48px; position: fixed; left: 696px; bottom: 729px'></img><div class = 'line' style = 'transform-origin: top left; transform: rotate(1818deg); width: 106.19999999999999px; height: 1px; background: black; position: fixed; top: 148.5px; left: 720px;'></div><img src = 'Images/Dot.png' style = 'width: 7.2px; position: fixed; left: 636.5637149380292px; top: 115.84196862305117px'></img><img src = 'Images/Heap.png' style = 'width: 72px; position: fixed; left: 864px; bottom: 87.75px'></img><img src= Images/Shell.png style = 'width: 48px; position: fixed; left: 1500.0000000000025px; bottom: 90px'></img><img src = 'Images/Cage.png' style = 'width: 144px; position: fixed; left: 648px; top: 746.9999999999986px'></img>","null","html-keyboard-response","26","56008","0.0-3.0-0.0-3.26-0.2699","1","true","0","1","7","160","3","Images/Shell.png","0.625","900","0.5","0"
"200","<img src = 'Images/Feedback.png' style = 'width: 1440px; position: fixed; left: 0px; top: 0px'></img><img src= Images/Shell.png style = 'width: 48px; position: fixed; left: 696px; bottom: 729px'></img><div class = 'line' style = 'transform-origin: top left; transform: rotate(2020deg); width: 106.19999999999999px; height: 1px; background: black; position: fixed; top: 148.5px; left: 720px;'></div><img src = 'Images/Dot.png' style = 'width: 7.2px; position: fixed; left: 636.5637149380292px; top: 115.84196862305117px'></img><img src = 'Images/Heap.png' style = 'width: 72px; position: fixed; left: 864px; bottom: 87.75px'></img><img src= Images/Shell.png style = 'width: 48px; position: fixed; left: 1500.0000000000025px; bottom: 90px'></img><img src = 'Images/Cage.png' style = 'width: 144px; position: fixed; left: 648px; top: 746.9999999999986px'></img>","null","html-keyboard-response","27","57777","0.0-3.0-0.0-3.27-0.2799","1","true","0","1","7","160","3","Images/Shell.png","0.625","900","0.5","0"
"200","<img src = 'Images/Feedback.png' style = 'width: 1440px; position: fixed; left: 0px; top: 0px'></img><img src= Images/crab.png style = 'width: 48px; position: fixed; left: 696px; bottom: 729px'></img><div class = 'line' style = 'transform-origin: top left; transform: rotate(2222deg); width: 106.19999999999999px; height: 1px; background: black; position: fixed; top: 148.5px; left: 720px;'></div><img src = 'Images/Dot.png' style = 'width: 7.2px; position: fixed; left: 636.5637149380292px; top: 115.84196862305117px'></img><img src = 'Images/Heap.png' style = 'width: 72px; position: fixed; left: 1224px; bottom: 87.75px'></img><img src= Images/crab.png style = 'width: 48px; position: fixed; left: 1860.0000000000055px; bottom: 90px'></img><img src = 'Images/Cage.png' style = 'width: 144px; position: fixed; left: 648px; top: 746.9999999999986px'></img>","null","html-keyboard-response","28","59555","0.0-3.0-0.0-3.28-0.2899","1","true","0","1","7","160","1","Images/crab.png","0.875","1260","0.5","0"
"200","<img src = 'Images/Feedback.png' style = 'width: 1440px; position: fixed; left: 0px; top: 0px'></img><img src= Images/Bulbfish.png style = 'width: 48px; position: fixed; left: 696px; bottom: 729px'></img><div class = 'line' style = 'transform-origin: top left; transform: rotate(2424deg); width: 106.19999999999999px; height: 1px; background: black; position: fixed; top: 148.5px; left: 720px;'></div><img src = 'Images/Dot.png' style = 'width: 7.2px; position: fixed; left: 636.5637149380292px; top: 115.84196862305117px'></img><img src = 'Images/Heap.png' style = 'width: 72px; position: fixed; left: 1044px; bottom: 87.75px'></img><img src= Images/Bulbfish.png style = 'width: 48px; position: fixed; left: 1680.0000000000055px; bottom: 90px'></img><img src = 'Images/Cage.png' style = 'width: 144px; position: fixed; left: 648px; top: 746.9999999999986px'></img>","null","html-keyboard-response","29","61322","0.0-3.0-0.0-3.29-0.2999","1","true","0","1","7","160","2","Images/Bulbfish.png","0.75","1080","0.5","0"
"200","<img src = 'Images/Feedback.png' style = 'width: 1440px; position: fixed; left: 0px; top: 0px'></img><img src= Images/Seastar.png style = 'width: 48px; position: fixed; left: 696px; bottom: 729px'></img><div class = 'line' style = 'transform-origin: top left; transform: rotate(2626deg); width: 106.19999999999999px; height: 1px; background: black; position: fixed; top: 148.5px; left: 720px;'></div><img src = 'Images/Dot.png' style = 'width: 7.2px; position: fixed; left: 636.5637149380292px; top: 115.84196862305117px'></img><img src = 'Images/Heap.png' style = 'width: 72px; position: fixed; left: 504px; bottom: 87.75px'></img><img src= Images/Seastar.png style = 'width: 48px; position: fixed; left: -107.99999999999932px; bottom: 90px'></img><img src = 'Images/Cage.png' style = 'width: 144px; position: fixed; left: 648px; top: 746.9999999999986px'></img>","null","html-keyboard-response","30","63072","0.0-3.0-0.0-3.30-0.3099","1","true","0","1","7","160","0","Images/Seastar.png","0.375","540","0.5","0"
"200","<img src = 'Images/Feedback.png' style = 'width: 1440px; position: fixed; left: 0px; top: 0px'></img><img src= Images/crab.png style = 'width: 48px; position: fixed; left: 696px; bottom: 729px'></img><div class = 'line' style = 'transform-origin: top left; transform: rotate(2828deg); width: 106.19999999999999px; height: 1px; background: black; position: fixed; top: 148.5px; left: 720px;'></div><img src = 'Images/Dot.png' style = 'width: 7.2px; position: fixed; left: 636.5637149380292px; top: 115.84196862305117px'></img><img src = 'Images/Heap.png' style = 'width: 72px; position: fixed; left: 1224px; bottom: 87.75px'></img><img src= Images/crab.png style = 'width: 48px; position: fixed; left: 1860.0000000000055px; bottom: 90px'></img><img src = 'Images/Cage.png' style = 'width: 144px; position: fixed; left: 648px; top: 746.9999999999986px'></img>","null","html-keyboard-response","31","64863","0.0-3.0-0.0-3.31-0.3199","1","true","0","1","7","160","1","Images/crab.png","0.875","1260","0.5","0"
"200","<img src = 'Images/Feedback.png' style = 'width: 1440px; position: fixed; left: 0px; top: 0px'></img><img src= Images/Seastar.png style = 'width: 48px; position: fixed; left: 696px; bottom: 729px'></img><div class = 'line' style = 'transform-origin: top left; transform: rotate(3030deg); width: 106.19999999999999px; height: 1px; background: black; position: fixed; top: 148.5px; left: 720px;'></div><img src = 'Images/Dot.png' style = 'width: 7.2px; position: fixed; left: 636.5637149380292px; top: 115.84196862305117px'></img><img src = 'Images/Heap.png' style = 'width: 72px; position: fixed; left: 504px; bottom: 87.75px'></img><img src= Images/Seastar.png style = 'width: 48px; position: fixed; left: -107.99999999999932px; bottom: 90px'></img><img src = 'Images/Cage.png' style = 'width: 144px; position: fixed; left: 648px; top: 746.9999999999986px'></img>","null","html-keyboard-response","32","66638","0.0-3.0-0.0-3.32-0.3299","1","true","0","1","7","160","0","Images/Seastar.png","0.375","540","0.5","0"
"200","<img src = 'Images/Feedback.png' style = 'width: 1440px; position: fixed; left: 0px; top: 0px'></img><img src= Images/HighFish.png style = 'width: 48px; position: fixed; left: 696px; bottom: 729px'></img><div class = 'line' style = 'transform-origin: top left; transform: rotate(3232deg); width: 106.19999999999999px; height: 1px; background: black; position: fixed; top: 148.5px; left: 720px;'></div><img src = 'Images/Dot.png' style = 'width: 7.2px; position: fixed; left: 636.5637149380292px; top: 115.84196862305117px'></img><img src = 'Images/Heap.png' style = 'width: 72px; position: fixed; left: 324px; bottom: 87.75px'></img><img src= Images/HighFish.png style = 'width: 48px; position: fixed; left: -287.99999999999955px; bottom: 90px'></img><img src = 'Images/Cage.png' style = 'width: 144px; position: fixed; left: 648px; top: 746.9999999999986px'></img>","null","html-keyboard-response","33","68420","0.0-3.0-0.0-3.33-0.3399","1","true","0","1","7","160","5","Images/HighFish.png","0.25","360","0.5","0"
"200","<img src = 'Images/Feedback.png' style = 'width: 1440px; position: fixed; left: 0px; top: 0px'></img><img src= Images/HighFish.png style = 'width: 48px; position: fixed; left: 696px; bottom: 729px'></img><div class = 'line' style = 'transform-origin: top left; transform: rotate(3434deg); width: 106.19999999999999px; height: 1px; background: black; position: fixed; top: 148.5px; left: 720px;'></div><img src = 'Images/Dot.png' style = 'width: 7.2px; position: fixed; left: 636.5637149380292px; top: 115.84196862305117px'></img><img src = 'Images/Heap.png' style = 'width: 72px; position: fixed; left: 324px; bottom: 87.75px'></img><img src= Images/HighFish.png style = 'width: 48px; position: fixed; left: -287.99999999999955px; bottom: 90px'></img><img src = 'Images/Cage.png' style = 'width: 144px; position: fixed; left: 648px; top: 746.9999999999986px'></img>","null","html-keyboard-response","34","70189","0.0-3.0-0.0-3.34-0.3499","1","true","0","1","7","160","5","Images/HighFish.png","0.25","360","0.5","0"
"200","<img src = 'Images/Feedback.png' style = 'width: 1440px; position: fixed; left: 0px; top: 0px'></img><img src= Images/Seahorse.png style = 'width: 48px; position: fixed; left: 696px; bottom: 729px'></img><div class = 'line' style = 'transform-origin: top left; transform: rotate(3636deg); width: 106.19999999999999px; height: 1px; background: black; position: fixed; top: 148.5px; left: 720px;'></div><img src = 'Images/Dot.png' style = 'width: 7.2px; position: fixed; left: 636.5637149380292px; top: 115.84196862305117px'></img><img src = 'Images/Heap.png' style = 'width: 72px; position: fixed; left: 144px; bottom: 87.75px'></img><img src= Images/Seahorse.png style = 'width: 48px; position: fixed; left: -467.9999999999999px; bottom: 90px'></img><img src = 'Images/Cage.png' style = 'width: 144px; position: fixed; left: 648px; top: 746.9999999999986px'></img>","null","html-keyboard-response","35","71938","0.0-3.0-0.0-3.35-0.3599","1","true","0","1","7","160","4","Images/Seahorse.png","0.125","180","0.5","0"
"200","<img src = 'Images/Feedback.png' style = 'width: 1440px; position: fixed; left: 0px; top: 0px'></img><img src= Images/Seastar.png style = 'width: 48px; position: fixed; left: 696px; bottom: 729px'></img><div class = 'line' style = 'transform-origin: top left; transform: rotate(202deg); width: 106.19999999999999px; height: 1px; background: black; position: fixed; top: 148.5px; left: 720px;'></div><img src = 'Images/Dot.png' style = 'width: 7.2px; position: fixed; left: 796.2362850619708px; top: 115.8419686230512px'></img><img src = 'Images/Heap.png' style = 'width: 72px; position: fixed; left: 864px; bottom: 87.75px'></img><img src= Images/Seastar.png style = 'width: 48px; position: fixed; left: 1500.0000000000025px; bottom: 90px'></img><img src = 'Images/Cage.png' style = 'width: 144px; position: fixed; left: 648px; top: 746.9999999999986px'></img>","null","html-keyboard-response","36","75756","0.0-3.0-0.0-3.36-0.3699","1","true","0","1","2","20","0","Images/Seastar.png","0.625","900","0.5","0"
"200","<img src = 'Images/Feedback.png' style = 'width: 1440px; position: fixed; left: 0px; top: 0px'></img><img src= Images/crab.png style = 'width: 48px; position: fixed; left: 696px; bottom: 729px'></img><div class = 'line' style = 'transform-origin: top left; transform: rotate(404deg); width: 106.19999999999999px; height: 1px; background: black; position: fixed; top: 148.5px; left: 720px;'></div><img src = 'Images/Dot.png' style = 'width: 7.2px; position: fixed; left: 796.2362850619708px; top: 115.8419686230512px'></img><img src = 'Images/Heap.png' style = 'width: 72px; position: fixed; left: 324px; bottom: 87.75px'></img><img src= Images/crab.png style = 'width: 48px; position: fixed; left: -287.99999999999955px; bottom: 90px'></img><img src = 'Images/Cage.png' style = 'width: 144px; position: fixed; left: 648px; top: 746.9999999999986px'></img>","null","html-keyboard-response","37","77538","0.0-3.0-0.0-3.37-0.3799","1","true","0","1","2","20","1","Images/crab.png","0.25","360","0.5","0"
"200","<img src = 'Images/Feedback.png' style = 'width: 1440px; position: fixed; left: 0px; top: 0px'></img><img src= Images/crab.png style = 'width: 48px; position: fixed; left: 696px; bottom: 729px'></img><div class = 'line' style = 'transform-origin: top left; transform: rotate(606deg); width: 106.19999999999999px; height: 1px; background: black; position: fixed; top: 148.5px; left: 720px;'></div><img src = 'Images/Dot.png' style = 'width: 7.2px; position: fixed; left: 796.2362850619708px; top: 115.8419686230512px'></img><img src = 'Images/Heap.png' style = 'width: 72px; position: fixed; left: 324px; bottom: 87.75px'></img><img src= Images/crab.png style = 'width: 48px; position: fixed; left: -287.99999999999955px; bottom: 90px'></img><img src = 'Images/Cage.png' style = 'width: 144px; position: fixed; left: 648px; top: 746.9999999999986px'></img>","null","html-keyboard-response","38","79296","0.0-3.0-0.0-3.38-0.3899","1","true","0","1","2","20","1","Images/crab.png","0.25","360","0.5","0"
"200","<img src = 'Images/Feedback.png' style = 'width: 1440px; position: fixed; left: 0px; top: 0px'></img><img src= Images/Seastar.png style = 'width: 48px; position: fixed; left: 696px; bottom: 729px'></img><div class = 'line' style = 'transform-origin: top left; transform: rotate(808deg); width: 106.19999999999999px; height: 1px; background: black; position: fixed; top: 148.5px; left: 720px;'></div><img src = 'Images/Dot.png' style = 'width: 7.2px; position: fixed; left: 796.2362850619708px; top: 115.8419686230512px'></img><img src = 'Images/Heap.png' style = 'width: 72px; position: fixed; left: 864px; bottom: 87.75px'></img><img src= Images/Seastar.png style = 'width: 48px; position: fixed; left: 1500.0000000000025px; bottom: 90px'></img><img src = 'Images/Cage.png' style = 'width: 144px; position: fixed; left: 648px; top: 746.9999999999986px'></img>","null","html-keyboard-response","39","81086","0.0-3.0-0.0-3.39-0.3999","1","true","0","1","2","20","0","Images/Seastar.png","0.625","900","0.5","0"
"200","<img src = 'Images/Feedback.png' style = 'width: 1440px; position: fixed; left: 0px; top: 0px'></img><img src= Images/Seahorse.png style = 'width: 48px; position: fixed; left: 696px; bottom: 729px'></img><div class = 'line' style = 'transform-origin: top left; transform: rotate(1010deg); width: 106.19999999999999px; height: 1px; background: black; position: fixed; top: 148.5px; left: 720px;'></div><img src = 'Images/Dot.png' style = 'width: 7.2px; position: fixed; left: 796.2362850619708px; top: 115.8419686230512px'></img><img src = 'Images/Heap.png' style = 'width: 72px; position: fixed; left: 1044px; bottom: 87.75px'></img><img src= Images/Seahorse.png style = 'width: 48px; position: fixed; left: 1680.0000000000055px; bottom: 90px'></img><img src = 'Images/Cage.png' style = 'width: 144px; position: fixed; left: 648px; top: 746.9999999999986px'></img>","null","html-keyboard-response","40","82851","0.0-3.0-0.0-3.40-0.4099","1","true","0","1","2","20","4","Images/Seahorse.png","0.75","1080","0.5","0"
"200","<img src = 'Images/Feedback.png' style = 'width: 1440px; position: fixed; left: 0px; top: 0px'></img><img src= Images/Bulbfish.png style = 'width: 48px; position: fixed; left: 696px; bottom: 729px'></img><div class = 'line' style = 'transform-origin: top left; transform: rotate(1212deg); width: 106.19999999999999px; height: 1px; background: black; position: fixed; top: 148.5px; left: 720px;'></div><img src = 'Images/Dot.png' style = 'width: 7.2px; position: fixed; left: 796.2362850619708px; top: 115.8419686230512px'></img><img src = 'Images/Heap.png' style = 'width: 72px; position: fixed; left: 1224px; bottom: 87.75px'></img><img src= Images/Bulbfish.png style = 'width: 48px; position: fixed; left: 1860.0000000000055px; bottom: 90px'></img><img src = 'Images/Cage.png' style = 'width: 144px; position: fixed; left: 648px; top: 746.9999999999986px'></img>","null","html-keyboard-response","41","84637","0.0-3.0-0.0-3.41-0.4199","1","true","0","1","2","20","2","Images/Bulbfish.png","0.875","1260","0.5","0"
"200","<img src = 'Images/Feedback.png' style = 'width: 1440px; position: fixed; left: 0px; top: 0px'></img><img src= Images/Bulbfish.png style = 'width: 48px; position: fixed; left: 696px; bottom: 729px'></img><div class = 'line' style = 'transform-origin: top left; transform: rotate(1414deg); width: 106.19999999999999px; height: 1px; background: black; position: fixed; top: 148.5px; left: 720px;'></div><img src = 'Images/Dot.png' style = 'width: 7.2px; position: fixed; left: 796.2362850619708px; top: 115.8419686230512px'></img><img src = 'Images/Heap.png' style = 'width: 72px; position: fixed; left: 1224px; bottom: 87.75px'></img><img src= Images/Bulbfish.png style = 'width: 48px; position: fixed; left: 1860.0000000000055px; bottom: 90px'></img><img src = 'Images/Cage.png' style = 'width: 144px; position: fixed; left: 648px; top: 746.9999999999986px'></img>","null","html-keyboard-response","42","86413","0.0-3.0-0.0-3.42-0.4299","1","true","0","1","2","20","2","Images/Bulbfish.png","0.875","1260","0.5","0"
"200","<img src = 'Images/Feedback.png' style = 'width: 1440px; position: fixed; left: 0px; top: 0px'></img><img src= Images/HighFish.png style = 'width: 48px; position: fixed; left: 696px; bottom: 729px'></img><div class = 'line' style = 'transform-origin: top left; transform: rotate(1616deg); width: 106.19999999999999px; height: 1px; background: black; position: fixed; top: 148.5px; left: 720px;'></div><img src = 'Images/Dot.png' style = 'width: 7.2px; position: fixed; left: 796.2362850619708px; top: 115.8419686230512px'></img><img src = 'Images/Heap.png' style = 'width: 72px; position: fixed; left: 504px; bottom: 87.75px'></img><img src= Images/HighFish.png style = 'width: 48px; position: fixed; left: -107.99999999999932px; bottom: 90px'></img><img src = 'Images/Cage.png' style = 'width: 144px; position: fixed; left: 648px; top: 746.9999999999986px'></img>","null","html-keyboard-response","43","88205","0.0-3.0-0.0-3.43-0.4399","1","true","0","1","2","20","5","Images/HighFish.png","0.375","540","0.5","0"
"200","<img src = 'Images/Feedback.png' style = 'width: 1440px; position: fixed; left: 0px; top: 0px'></img><img src= Images/Bulbfish.png style = 'width: 48px; position: fixed; left: 696px; bottom: 729px'></img><div class = 'line' style = 'transform-origin: top left; transform: rotate(1818deg); width: 106.19999999999999px; height: 1px; background: black; position: fixed; top: 148.5px; left: 720px;'></div><img src = 'Images/Dot.png' style = 'width: 7.2px; position: fixed; left: 796.2362850619708px; top: 115.8419686230512px'></img><img src = 'Images/Heap.png' style = 'width: 72px; position: fixed; left: 1224px; bottom: 87.75px'></img><img src= Images/Bulbfish.png style = 'width: 48px; position: fixed; left: 1860.0000000000055px; bottom: 90px'></img><img src = 'Images/Cage.png' style = 'width: 144px; position: fixed; left: 648px; top: 746.9999999999986px'></img>","null","html-keyboard-response","44","89985","0.0-3.0-0.0-3.44-0.4499","1","true","0","1","2","20","2","Images/Bulbfish.png","0.875","1260","0.5","0"
"200","<img src = 'Images/Feedback.png' style = 'width: 1440px; position: fixed; left: 0px; top: 0px'></img><img src= Images/Seahorse.png style = 'width: 48px; position: fixed; left: 696px; bottom: 729px'></img><div class = 'line' style = 'transform-origin: top left; transform: rotate(2020deg); width: 106.19999999999999px; height: 1px; background: black; position: fixed; top: 148.5px; left: 720px;'></div><img src = 'Images/Dot.png' style = 'width: 7.2px; position: fixed; left: 796.2362850619708px; top: 115.8419686230512px'></img><img src = 'Images/Heap.png' style = 'width: 72px; position: fixed; left: 1044px; bottom: 87.75px'></img><img src= Images/Seahorse.png style = 'width: 48px; position: fixed; left: 1680.0000000000055px; bottom: 90px'></img><img src = 'Images/Cage.png' style = 'width: 144px; position: fixed; left: 648px; top: 746.9999999999986px'></img>","null","html-keyboard-response","45","91777","0.0-3.0-0.0-3.45-0.4599","1","true","0","1","2","20","4","Images/Seahorse.png","0.75","1080","0.5","0"
"200","<img src = 'Images/Feedback.png' style = 'width: 1440px; position: fixed; left: 0px; top: 0px'></img><img src= Images/Shell.png style = 'width: 48px; position: fixed; left: 696px; bottom: 729px'></img><div class = 'line' style = 'transform-origin: top left; transform: rotate(2222deg); width: 106.19999999999999px; height: 1px; background: black; position: fixed; top: 148.5px; left: 720px;'></div><img src = 'Images/Dot.png' style = 'width: 7.2px; position: fixed; left: 796.2362850619708px; top: 115.8419686230512px'></img><img src = 'Images/Heap.png' style = 'width: 72px; position: fixed; left: 144px; bottom: 87.75px'></img><img src= Images/Shell.png style = 'width: 48px; position: fixed; left: -467.9999999999999px; bottom: 90px'></img><img src = 'Images/Cage.png' style = 'width: 144px; position: fixed; left: 648px; top: 746.9999999999986px'></img>","null","html-keyboard-response","46","93556","0.0-3.0-0.0-3.46-0.4699","1","true","0","1","2","20","3","Images/Shell.png","0.125","180","0.5","0"
"200","<img src = 'Images/Feedback.png' style = 'width: 1440px; position: fixed; left: 0px; top: 0px'></img><img src= Images/Seahorse.png style = 'width: 48px; position: fixed; left: 696px; bottom: 729px'></img><div class = 'line' style = 'transform-origin: top left; transform: rotate(2424deg); width: 106.19999999999999px; height: 1px; background: black; position: fixed; top: 148.5px; left: 720px;'></div><img src = 'Images/Dot.png' style = 'width: 7.2px; position: fixed; left: 796.2362850619708px; top: 115.8419686230512px'></img><img src = 'Images/Heap.png' style = 'width: 72px; position: fixed; left: 1044px; bottom: 87.75px'></img><img src= Images/Seahorse.png style = 'width: 48px; position: fixed; left: 1680.0000000000055px; bottom: 90px'></img><img src = 'Images/Cage.png' style = 'width: 144px; position: fixed; left: 648px; top: 746.9999999999986px'></img>","null","html-keyboard-response","47","95346","0.0-3.0-0.0-3.47-0.4799","1","true","0","1","2","20","4","Images/Seahorse.png","0.75","1080","0.5","0"
"200","<img src = 'Images/Feedback.png' style = 'width: 1440px; position: fixed; left: 0px; top: 0px'></img><img src= Images/HighFish.png style = 'width: 48px; position: fixed; left: 696px; bottom: 729px'></img><div class = 'line' style = 'transform-origin: top left; transform: rotate(2626deg); width: 106.19999999999999px; height: 1px; background: black; position: fixed; top: 148.5px; left: 720px;'></div><img src = 'Images/Dot.png' style = 'width: 7.2px; position: fixed; left: 796.2362850619708px; top: 115.8419686230512px'></img><img src = 'Images/Heap.png' style = 'width: 72px; position: fixed; left: 504px; bottom: 87.75px'></img><img src= Images/HighFish.png style = 'width: 48px; position: fixed; left: -107.99999999999932px; bottom: 90px'></img><img src = 'Images/Cage.png' style = 'width: 144px; position: fixed; left: 648px; top: 746.9999999999986px'></img>","null","html-keyboard-response","48","97099","0.0-3.0-0.0-3.48-0.4899","1","true","0","1","2","20","5","Images/HighFish.png","0.375","540","0.5","0"
"200","<img src = 'Images/Feedback.png' style = 'width: 1440px; position: fixed; left: 0px; top: 0px'></img><img src= Images/Shell.png style = 'width: 48px; position: fixed; left: 696px; bottom: 729px'></img><div class = 'line' style = 'transform-origin: top left; transform: rotate(2828deg); width: 106.19999999999999px; height: 1px; background: black; position: fixed; top: 148.5px; left: 720px;'></div><img src = 'Images/Dot.png' style = 'width: 7.2px; position: fixed; left: 796.2362850619708px; top: 115.8419686230512px'></img><img src = 'Images/Heap.png' style = 'width: 72px; position: fixed; left: 144px; bottom: 87.75px'></img><img src= Images/Shell.png style = 'width: 48px; position: fixed; left: -467.9999999999999px; bottom: 90px'></img><img src = 'Images/Cage.png' style = 'width: 144px; position: fixed; left: 648px; top: 746.9999999999986px'></img>","null","html-keyboard-response","49","98905","0.0-3.0-0.0-3.49-0.4999","1","true","0","1","2","20","3","Images/Shell.png","0.125","180","0.5","0"
"200","<img src = 'Images/Feedback.png' style = 'width: 1440px; position: fixed; left: 0px; top: 0px'></img><img src= Images/HighFish.png style = 'width: 48px; position: fixed; left: 696px; bottom: 729px'></img><div class = 'line' style = 'transform-origin: top left; transform: rotate(3030deg); width: 106.19999999999999px; height: 1px; background: black; position: fixed; top: 148.5px; left: 720px;'></div><img src = 'Images/Dot.png' style = 'width: 7.2px; position: fixed; left: 796.2362850619708px; top: 115.8419686230512px'></img><img src = 'Images/Heap.png' style = 'width: 72px; position: fixed; left: 504px; bottom: 87.75px'></img><img src= Images/HighFish.png style = 'width: 48px; position: fixed; left: -107.99999999999932px; bottom: 90px'></img><img src = 'Images/Cage.png' style = 'width: 144px; position: fixed; left: 648px; top: 746.9999999999986px'></img>","null","html-keyboard-response","50","100667","0.0-3.0-0.0-3.50-0.5099","1","true","0","1","2","20","5","Images/HighFish.png","0.375","540","0.5","0"
"200","<img src = 'Images/Feedback.png' style = 'width: 1440px; position: fixed; left: 0px; top: 0px'></img><img src= Images/Shell.png style = 'width: 48px; position: fixed; left: 696px; bottom: 729px'></img><div class = 'line' style = 'transform-origin: top left; transform: rotate(3232deg); width: 106.19999999999999px; height: 1px; background: black; position: fixed; top: 148.5px; left: 720px;'></div><img src = 'Images/Dot.png' style = 'width: 7.2px; position: fixed; left: 796.2362850619708px; top: 115.8419686230512px'></img><img src = 'Images/Heap.png' style = 'width: 72px; position: fixed; left: 144px; bottom: 87.75px'></img><img src= Images/Shell.png style = 'width: 48px; position: fixed; left: -467.9999999999999px; bottom: 90px'></img><img src = 'Images/Cage.png' style = 'width: 144px; position: fixed; left: 648px; top: 746.9999999999986px'></img>","null","html-keyboard-response","51","102413","0.0-3.0-0.0-3.51-0.5199","1","true","0","1","2","20","3","Images/Shell.png","0.125","180","0.5","0"
"200","<img src = 'Images/Feedback.png' style = 'width: 1440px; position: fixed; left: 0px; top: 0px'></img><img src= Images/Seastar.png style = 'width: 48px; position: fixed; left: 696px; bottom: 729px'></img><div class = 'line' style = 'transform-origin: top left; transform: rotate(3434deg); width: 106.19999999999999px; height: 1px; background: black; position: fixed; top: 148.5px; left: 720px;'></div><img src = 'Images/Dot.png' style = 'width: 7.2px; position: fixed; left: 796.2362850619708px; top: 115.8419686230512px'></img><img src = 'Images/Heap.png' style = 'width: 72px; position: fixed; left: 864px; bottom: 87.75px'></img><img src= Images/Seastar.png style = 'width: 48px; position: fixed; left: 1500.0000000000025px; bottom: 90px'></img><img src = 'Images/Cage.png' style = 'width: 144px; position: fixed; left: 648px; top: 746.9999999999986px'></img>","null","html-keyboard-response","52","104196","0.0-3.0-0.0-3.52-0.5299","1","true","0","1","2","20","0","Images/Seastar.png","0.625","900","0.5","0"
"200","<img src = 'Images/Feedback.png' style = 'width: 1440px; position: fixed; left: 0px; top: 0px'></img><img src= Images/crab.png style = 'width: 48px; position: fixed; left: 696px; bottom: 729px'></img><div class = 'line' style = 'transform-origin: top left; transform: rotate(3636deg); width: 106.19999999999999px; height: 1px; background: black; position: fixed; top: 148.5px; left: 720px;'></div><img src = 'Images/Dot.png' style = 'width: 7.2px; position: fixed; left: 796.2362850619708px; top: 115.8419686230512px'></img><img src = 'Images/Heap.png' style = 'width: 72px; position: fixed; left: 324px; bottom: 87.75px'></img><img src= Images/crab.png style = 'width: 48px; position: fixed; left: -287.99999999999955px; bottom: 90px'></img><img src = 'Images/Cage.png' style = 'width: 144px; position: fixed; left: 648px; top: 746.9999999999986px'></img>","null","html-keyboard-response","53","105973","0.0-3.0-0.0-3.53-0.5399","1","true","0","1","2","20","1","Images/crab.png","0.25","360","0.5","0"
"200","<img src = 'Images/Feedback.png' style = 'width: 1440px; position: fixed; left: 0px; top: 0px'></img><img src= Images/Seahorse.png style = 'width: 48px; position: fixed; left: 696px; bottom: 729px'></img><div class = 'line' style = 'transform-origin: top left; transform: rotate(202deg); width: 106.19999999999999px; height: 1px; background: black; position: fixed; top: 148.5px; left: 720px;'></div><img src = 'Images/Dot.png' style = 'width: 7.2px; position: fixed; left: 636.5637149380292px; top: 173.9580313769488px'></img><img src = 'Images/Heap.png' style = 'width: 72px; position: fixed; left: 324px; bottom: 87.75px'></img><img src= Images/Seahorse.png style = 'width: 48px; position: fixed; left: -287.99999999999955px; bottom: 90px'></img><img src = 'Images/Cage.png' style = 'width: 144px; position: fixed; left: 648px; top: 746.9999999999986px'></img>","null","html-keyboard-response","54","110038","0.0-3.0-0.0-3.54-0.5499","1","true","0","1","6","200","4","Images/Seahorse.png","0.25","360","0.5","0"
"200","<img src = 'Images/Feedback.png' style = 'width: 1440px; position: fixed; left: 0px; top: 0px'></img><img src= Images/Shell.png style = 'width: 48px; position: fixed; left: 696px; bottom: 729px'></img><div class = 'line' style = 'transform-origin: top left; transform: rotate(404deg); width: 106.19999999999999px; height: 1px; background: black; position: fixed; top: 148.5px; left: 720px;'></div><img src = 'Images/Dot.png' style = 'width: 7.2px; position: fixed; left: 636.5637149380292px; top: 173.9580313769488px'></img><img src = 'Images/Heap.png' style = 'width: 72px; position: fixed; left: 1224px; bottom: 87.75px'></img><img src= Images/Shell.png style = 'width: 48px; position: fixed; left: 1860.0000000000055px; bottom: 90px'></img><img src = 'Images/Cage.png' style = 'width: 144px; position: fixed; left: 648px; top: 746.9999999999986px'></img>","null","html-keyboard-response","55","111806","0.0-3.0-0.0-3.55-0.5599","1","true","0","1","6","200","3","Images/Shell.png","0.875","1260","0.5","0"
"200","<img src = 'Images/Feedback.png' style = 'width: 1440px; position: fixed; left: 0px; top: 0px'></img><img src= Images/HighFish.png style = 'width: 48px; position: fixed; left: 696px; bottom: 729px'></img><div class = 'line' style = 'transform-origin: top left; transform: rotate(606deg); width: 106.19999999999999px; height: 1px; background: black; position: fixed; top: 148.5px; left: 720px;'></div><img src = 'Images/Dot.png' style = 'width: 7.2px; position: fixed; left: 636.5637149380292px; top: 173.9580313769488px'></img><img src = 'Images/Heap.png' style = 'width: 72px; position: fixed; left: 864px; bottom: 87.75px'></img><img src= Images/HighFish.png style = 'width: 48px; position: fixed; left: 1500.0000000000025px; bottom: 90px'></img><img src = 'Images/Cage.png' style = 'width: 144px; position: fixed; left: 648px; top: 746.9999999999986px'></img>","null","html-keyboard-response","56","113579","0.0-3.0-0.0-3.56-0.5699","1","true","0","1","6","200","5","Images/HighFish.png","0.625","900","0.5","0"
"200","<img src = 'Images/Feedback.png' style = 'width: 1440px; position: fixed; left: 0px; top: 0px'></img><img src= Images/Bulbfish.png style = 'width: 48px; position: fixed; left: 696px; bottom: 729px'></img><div class = 'line' style = 'transform-origin: top left; transform: rotate(808deg); width: 106.19999999999999px; height: 1px; background: black; position: fixed; top: 148.5px; left: 720px;'></div><img src = 'Images/Dot.png' style = 'width: 7.2px; position: fixed; left: 636.5637149380292px; top: 173.9580313769488px'></img><img src = 'Images/Heap.png' style = 'width: 72px; position: fixed; left: 144px; bottom: 87.75px'></img><img src= Images/Bulbfish.png style = 'width: 48px; position: fixed; left: -467.9999999999999px; bottom: 90px'></img><img src = 'Images/Cage.png' style = 'width: 144px; position: fixed; left: 648px; top: 746.9999999999986px'></img>","null","html-keyboard-response","57","115346","0.0-3.0-0.0-3.57-0.5799","1","true","0","1","6","200","2","Images/Bulbfish.png","0.125","180","0.5","0"
"200","<img src = 'Images/Feedback.png' style = 'width: 1440px; position: fixed; left: 0px; top: 0px'></img><img src= Images/Seahorse.png style = 'width: 48px; position: fixed; left: 696px; bottom: 729px'></img><div class = 'line' style = 'transform-origin: top left; transform: rotate(1010deg); width: 106.19999999999999px; height: 1px; background: black; position: fixed; top: 148.5px; left: 720px;'></div><img src = 'Images/Dot.png' style = 'width: 7.2px; position: fixed; left: 636.5637149380292px; top: 173.9580313769488px'></img><img src = 'Images/Heap.png' style = 'width: 72px; position: fixed; left: 324px; bottom: 87.75px'></img><img src= Images/Seahorse.png style = 'width: 48px; position: fixed; left: -287.99999999999955px; bottom: 90px'></img><img src = 'Images/Cage.png' style = 'width: 144px; position: fixed; left: 648px; top: 746.9999999999986px'></img>","null","html-keyboard-response","58","117148","0.0-3.0-0.0-3.58-0.5899","1","true","0","1","6","200","4","Images/Seahorse.png","0.25","360","0.5","0"
"200","<img src = 'Images/Feedback.png' style = 'width: 1440px; position: fixed; left: 0px; top: 0px'></img><img src= Images/crab.png style = 'width: 48px; position: fixed; left: 696px; bottom: 729px'></img><div class = 'line' style = 'transform-origin: top left; transform: rotate(1212deg); width: 106.19999999999999px; height: 1px; background: black; position: fixed; top: 148.5px; left: 720px;'></div><img src = 'Images/Dot.png' style = 'width: 7.2px; position: fixed; left: 636.5637149380292px; top: 173.9580313769488px'></img><img src = 'Images/Heap.png' style = 'width: 72px; position: fixed; left: 1044px; bottom: 87.75px'></img><img src= Images/crab.png style = 'width: 48px; position: fixed; left: 1680.0000000000055px; bottom: 90px'></img><img src = 'Images/Cage.png' style = 'width: 144px; position: fixed; left: 648px; top: 746.9999999999986px'></img>","null","html-keyboard-response","59","118965","0.0-3.0-0.0-3.59-0.5999","1","true","0","1","6","200","1","Images/crab.png","0.75","1080","0.5","0"
"200","<img src = 'Images/Feedback.png' style = 'width: 1440px; position: fixed; left: 0px; top: 0px'></img><img src= Images/Seahorse.png style = 'width: 48px; position: fixed; left: 696px; bottom: 729px'></img><div class = 'line' style = 'transform-origin: top left; transform: rotate(1414deg); width: 106.19999999999999px; height: 1px; background: black; position: fixed; top: 148.5px; left: 720px;'></div><img src = 'Images/Dot.png' style = 'width: 7.2px; position: fixed; left: 636.5637149380292px; top: 173.9580313769488px'></img><img src = 'Images/Heap.png' style = 'width: 72px; position: fixed; left: 324px; bottom: 87.75px'></img><img src= Images/Seahorse.png style = 'width: 48px; position: fixed; left: -287.99999999999955px; bottom: 90px'></img><img src = 'Images/Cage.png' style = 'width: 144px; position: fixed; left: 648px; top: 746.9999999999986px'></img>","null","html-keyboard-response","60","120748","0.0-3.0-0.0-3.60-0.6099","1","true","0","1","6","200","4","Images/Seahorse.png","0.25","360","0.5","0"
"200","<img src = 'Images/Feedback.png' style = 'width: 1440px; position: fixed; left: 0px; top: 0px'></img><img src= Images/Seastar.png style = 'width: 48px; position: fixed; left: 696px; bottom: 729px'></img><div class = 'line' style = 'transform-origin: top left; transform: rotate(1616deg); width: 106.19999999999999px; height: 1px; background: black; position: fixed; top: 148.5px; left: 720px;'></div><img src = 'Images/Dot.png' style = 'width: 7.2px; position: fixed; left: 636.5637149380292px; top: 173.9580313769488px'></img><img src = 'Images/Heap.png' style = 'width: 72px; position: fixed; left: 504px; bottom: 87.75px'></img><img src= Images/Seastar.png style = 'width: 48px; position: fixed; left: -107.99999999999932px; bottom: 90px'></img><img src = 'Images/Cage.png' style = 'width: 144px; position: fixed; left: 648px; top: 746.9999999999986px'></img>","null","html-keyboard-response","61","122529","0.0-3.0-0.0-3.61-0.6199","1","true","0","1","6","200","0","Images/Seastar.png","0.375","540","0.5","0"
"200","<img src = 'Images/Feedback.png' style = 'width: 1440px; position: fixed; left: 0px; top: 0px'></img><img src= Images/HighFish.png style = 'width: 48px; position: fixed; left: 696px; bottom: 729px'></img><div class = 'line' style = 'transform-origin: top left; transform: rotate(1818deg); width: 106.19999999999999px; height: 1px; background: black; position: fixed; top: 148.5px; left: 720px;'></div><img src = 'Images/Dot.png' style = 'width: 7.2px; position: fixed; left: 636.5637149380292px; top: 173.9580313769488px'></img><img src = 'Images/Heap.png' style = 'width: 72px; position: fixed; left: 864px; bottom: 87.75px'></img><img src= Images/HighFish.png style = 'width: 48px; position: fixed; left: 1500.0000000000025px; bottom: 90px'></img><img src = 'Images/Cage.png' style = 'width: 144px; position: fixed; left: 648px; top: 746.9999999999986px'></img>","null","html-keyboard-response","62","124276","0.0-3.0-0.0-3.62-0.6299","1","true","0","1","6","200","5","Images/HighFish.png","0.625","900","0.5","0"
"200","<img src = 'Images/Feedback.png' style = 'width: 1440px; position: fixed; left: 0px; top: 0px'></img><img src= Images/Shell.png style = 'width: 48px; position: fixed; left: 696px; bottom: 729px'></img><div class = 'line' style = 'transform-origin: top left; transform: rotate(2020deg); width: 106.19999999999999px; height: 1px; background: black; position: fixed; top: 148.5px; left: 720px;'></div><img src = 'Images/Dot.png' style = 'width: 7.2px; position: fixed; left: 636.5637149380292px; top: 173.9580313769488px'></img><img src = 'Images/Heap.png' style = 'width: 72px; position: fixed; left: 1224px; bottom: 87.75px'></img><img src= Images/Shell.png style = 'width: 48px; position: fixed; left: 1860.0000000000055px; bottom: 90px'></img><img src = 'Images/Cage.png' style = 'width: 144px; position: fixed; left: 648px; top: 746.9999999999986px'></img>","null","html-keyboard-response","63","126030","0.0-3.0-0.0-3.63-0.6399","1","true","0","1","6","200","3","Images/Shell.png","0.875","1260","0.5","0"
"200","<img src = 'Images/Feedback.png' style = 'width: 1440px; position: fixed; left: 0px; top: 0px'></img><img src= Images/crab.png style = 'width: 48px; position: fixed; left: 696px; bottom: 729px'></img><div class = 'line' style = 'transform-origin: top left; transform: rotate(2222deg); width: 106.19999999999999px; height: 1px; background: black; position: fixed; top: 148.5px; left: 720px;'></div><img src = 'Images/Dot.png' style = 'width: 7.2px; position: fixed; left: 636.5637149380292px; top: 173.9580313769488px'></img><img src = 'Images/Heap.png' style = 'width: 72px; position: fixed; left: 1044px; bottom: 87.75px'></img><img src= Images/crab.png style = 'width: 48px; position: fixed; left: 1680.0000000000055px; bottom: 90px'></img><img src = 'Images/Cage.png' style = 'width: 144px; position: fixed; left: 648px; top: 746.9999999999986px'></img>","null","html-keyboard-response","64","127823","0.0-3.0-0.0-3.64-0.6499","1","true","0","1","6","200","1","Images/crab.png","0.75","1080","0.5","0"
"200","<img src = 'Images/Feedback.png' style = 'width: 1440px; position: fixed; left: 0px; top: 0px'></img><img src= Images/HighFish.png style = 'width: 48px; position: fixed; left: 696px; bottom: 729px'></img><div class = 'line' style = 'transform-origin: top left; transform: rotate(2424deg); width: 106.19999999999999px; height: 1px; background: black; position: fixed; top: 148.5px; left: 720px;'></div><img src = 'Images/Dot.png' style = 'width: 7.2px; position: fixed; left: 636.5637149380292px; top: 173.9580313769488px'></img><img src = 'Images/Heap.png' style = 'width: 72px; position: fixed; left: 864px; bottom: 87.75px'></img><img src= Images/HighFish.png style = 'width: 48px; position: fixed; left: 1500.0000000000025px; bottom: 90px'></img><img src = 'Images/Cage.png' style = 'width: 144px; position: fixed; left: 648px; top: 746.9999999999986px'></img>","null","html-keyboard-response","65","129608","0.0-3.0-0.0-3.65-0.6599","1","true","0","1","6","200","5","Images/HighFish.png","0.625","900","0.5","0"
"200","<img src = 'Images/Feedback.png' style = 'width: 1440px; position: fixed; left: 0px; top: 0px'></img><img src= Images/Seastar.png style = 'width: 48px; position: fixed; left: 696px; bottom: 729px'></img><div class = 'line' style = 'transform-origin: top left; transform: rotate(2626deg); width: 106.19999999999999px; height: 1px; background: black; position: fixed; top: 148.5px; left: 720px;'></div><img src = 'Images/Dot.png' style = 'width: 7.2px; position: fixed; left: 636.5637149380292px; top: 173.9580313769488px'></img><img src = 'Images/Heap.png' style = 'width: 72px; position: fixed; left: 504px; bottom: 87.75px'></img><img src= Images/Seastar.png style = 'width: 48px; position: fixed; left: -107.99999999999932px; bottom: 90px'></img><img src = 'Images/Cage.png' style = 'width: 144px; position: fixed; left: 648px; top: 746.9999999999986px'></img>","null","html-keyboard-response","66","131376","0.0-3.0-0.0-3.66-0.6699","1","true","0","1","6","200","0","Images/Seastar.png","0.375","540","0.5","0"
"200","<img src = 'Images/Feedback.png' style = 'width: 1440px; position: fixed; left: 0px; top: 0px'></img><img src= Images/crab.png style = 'width: 48px; position: fixed; left: 696px; bottom: 729px'></img><div class = 'line' style = 'transform-origin: top left; transform: rotate(2828deg); width: 106.19999999999999px; height: 1px; background: black; position: fixed; top: 148.5px; left: 720px;'></div><img src = 'Images/Dot.png' style = 'width: 7.2px; position: fixed; left: 636.5637149380292px; top: 173.9580313769488px'></img><img src = 'Images/Heap.png' style = 'width: 72px; position: fixed; left: 1044px; bottom: 87.75px'></img><img src= Images/crab.png style = 'width: 48px; position: fixed; left: 1680.0000000000055px; bottom: 90px'></img><img src = 'Images/Cage.png' style = 'width: 144px; position: fixed; left: 648px; top: 746.9999999999986px'></img>","null","html-keyboard-response","67","133159","0.0-3.0-0.0-3.67-0.6799","1","true","0","1","6","200","1","Images/crab.png","0.75","1080","0.5","0"
"200","<img src = 'Images/Feedback.png' style = 'width: 1440px; position: fixed; left: 0px; top: 0px'></img><img src= Images/Shell.png style = 'width: 48px; position: fixed; left: 696px; bottom: 729px'></img><div class = 'line' style = 'transform-origin: top left; transform: rotate(3030deg); width: 106.19999999999999px; height: 1px; background: black; position: fixed; top: 148.5px; left: 720px;'></div><img src = 'Images/Dot.png' style = 'width: 7.2px; position: fixed; left: 636.5637149380292px; top: 173.9580313769488px'></img><img src = 'Images/Heap.png' style = 'width: 72px; position: fixed; left: 1224px; bottom: 87.75px'></img><img src= Images/Shell.png style = 'width: 48px; position: fixed; left: 1860.0000000000055px; bottom: 90px'></img><img src = 'Images/Cage.png' style = 'width: 144px; position: fixed; left: 648px; top: 746.9999999999986px'></img>","null","html-keyboard-response","68","134962","0.0-3.0-0.0-3.68-0.6899","1","true","0","1","6","200","3","Images/Shell.png","0.875","1260","0.5","0"
"200","<img src = 'Images/Feedback.png' style = 'width: 1440px; position: fixed; left: 0px; top: 0px'></img><img src= Images/Seastar.png style = 'width: 48px; position: fixed; left: 696px; bottom: 729px'></img><div class = 'line' style = 'transform-origin: top left; transform: rotate(3232deg); width: 106.19999999999999px; height: 1px; background: black; position: fixed; top: 148.5px; left: 720px;'></div><img src = 'Images/Dot.png' style = 'width: 7.2px; position: fixed; left: 636.5637149380292px; top: 173.9580313769488px'></img><img src = 'Images/Heap.png' style = 'width: 72px; position: fixed; left: 504px; bottom: 87.75px'></img><img src= Images/Seastar.png style = 'width: 48px; position: fixed; left: -107.99999999999932px; bottom: 90px'></img><img src = 'Images/Cage.png' style = 'width: 144px; position: fixed; left: 648px; top: 746.9999999999986px'></img>","null","html-keyboard-response","69","136746","0.0-3.0-0.0-3.69-0.6999","1","true","0","1","6","200","0","Images/Seastar.png","0.375","540","0.5","0"
"200","<img src = 'Images/Feedback.png' style = 'width: 1440px; position: fixed; left: 0px; top: 0px'></img><img src= Images/Bulbfish.png style = 'width: 48px; position: fixed; left: 696px; bottom: 729px'></img><div class = 'line' style = 'transform-origin: top left; transform: rotate(3434deg); width: 106.19999999999999px; height: 1px; background: black; position: fixed; top: 148.5px; left: 720px;'></div><img src = 'Images/Dot.png' style = 'width: 7.2px; position: fixed; left: 636.5637149380292px; top: 173.9580313769488px'></img><img src = 'Images/Heap.png' style = 'width: 72px; position: fixed; left: 144px; bottom: 87.75px'></img><img src= Images/Bulbfish.png style = 'width: 48px; position: fixed; left: -467.9999999999999px; bottom: 90px'></img><img src = 'Images/Cage.png' style = 'width: 144px; position: fixed; left: 648px; top: 746.9999999999986px'></img>","null","html-keyboard-response","70","138518","0.0-3.0-0.0-3.70-0.7099","1","true","0","1","6","200","2","Images/Bulbfish.png","0.125","180","0.5","0"
"200","<img src = 'Images/Feedback.png' style = 'width: 1440px; position: fixed; left: 0px; top: 0px'></img><img src= Images/Bulbfish.png style = 'width: 48px; position: fixed; left: 696px; bottom: 729px'></img><div class = 'line' style = 'transform-origin: top left; transform: rotate(3636deg); width: 106.19999999999999px; height: 1px; background: black; position: fixed; top: 148.5px; left: 720px;'></div><img src = 'Images/Dot.png' style = 'width: 7.2px; position: fixed; left: 636.5637149380292px; top: 173.9580313769488px'></img><img src = 'Images/Heap.png' style = 'width: 72px; position: fixed; left: 144px; bottom: 87.75px'></img><img src= Images/Bulbfish.png style = 'width: 48px; position: fixed; left: -467.9999999999999px; bottom: 90px'></img><img src = 'Images/Cage.png' style = 'width: 144px; position: fixed; left: 648px; top: 746.9999999999986px'></img>","null","html-keyboard-response","71","140301","0.0-3.0-0.0-3.71-0.7199","1","true","0","1","6","200","2","Images/Bulbfish.png","0.125","180","0.5","0"
"200","<img src = 'Images/Feedback.png' style = 'width: 1440px; position: fixed; left: 0px; top: 0px'></img><img src= Images/HighFish.png style = 'width: 48px; position: fixed; left: 696px; bottom: 729px'></img><div class = 'line' style = 'transform-origin: top left; transform: rotate(202deg); width: 106.19999999999999px; height: 1px; background: black; position: fixed; top: 148.5px; left: 720px;'></div><img src = 'Images/Dot.png' style = 'width: 7.2px; position: fixed; left: 745.4580313769488px; top: 65.06371493802924px'></img><img src = 'Images/Heap.png' style = 'width: 72px; position: fixed; left: 144px; bottom: 87.75px'></img><img src= Images/HighFish.png style = 'width: 48px; position: fixed; left: -467.9999999999999px; bottom: 90px'></img><img src = 'Images/Cage.png' style = 'width: 144px; position: fixed; left: 648px; top: 746.9999999999986px'></img>","null","html-keyboard-response","72","144138","0.0-3.0-0.0-3.72-0.7299","1","true","0","1","1","70","5","Images/HighFish.png","0.125","180","0.5","0"
"200","<img src = 'Images/Feedback.png' style = 'width: 1440px; position: fixed; left: 0px; top: 0px'></img><img src= Images/Shell.png style = 'width: 48px; position: fixed; left: 696px; bottom: 729px'></img><div class = 'line' style = 'transform-origin: top left; transform: rotate(404deg); width: 106.19999999999999px; height: 1px; background: black; position: fixed; top: 148.5px; left: 720px;'></div><img src = 'Images/Dot.png' style = 'width: 7.2px; position: fixed; left: 745.4580313769488px; top: 65.06371493802924px'></img><img src = 'Images/Heap.png' style = 'width: 72px; position: fixed; left: 504px; bottom: 87.75px'></img><img src= Images/Shell.png style = 'width: 48px; position: fixed; left: -107.99999999999932px; bottom: 90px'></img><img src = 'Images/Cage.png' style = 'width: 144px; position: fixed; left: 648px; top: 746.9999999999986px'></img>","null","html-keyboard-response","73","145903","0.0-3.0-0.0-3.73-0.7399","1","true","0","1","1","70","3","Images/Shell.png","0.375","540","0.5","0"
"200","<img src = 'Images/Feedback.png' style = 'width: 1440px; position: fixed; left: 0px; top: 0px'></img><img src= Images/Bulbfish.png style = 'width: 48px; position: fixed; left: 696px; bottom: 729px'></img><div class = 'line' style = 'transform-origin: top left; transform: rotate(606deg); width: 106.19999999999999px; height: 1px; background: black; position: fixed; top: 148.5px; left: 720px;'></div><img src = 'Images/Dot.png' style = 'width: 7.2px; position: fixed; left: 745.4580313769488px; top: 65.06371493802924px'></img><img src = 'Images/Heap.png' style = 'width: 72px; position: fixed; left: 864px; bottom: 87.75px'></img><img src= Images/Bulbfish.png style = 'width: 48px; position: fixed; left: 1500.0000000000025px; bottom: 90px'></img><img src = 'Images/Cage.png' style = 'width: 144px; position: fixed; left: 648px; top: 746.9999999999986px'></img>","null","html-keyboard-response","74","147686","0.0-3.0-0.0-3.74-0.7499","1","true","0","1","1","70","2","Images/Bulbfish.png","0.625","900","0.5","0"
"200","<img src = 'Images/Feedback.png' style = 'width: 1440px; position: fixed; left: 0px; top: 0px'></img><img src= Images/Bulbfish.png style = 'width: 48px; position: fixed; left: 696px; bottom: 729px'></img><div class = 'line' style = 'transform-origin: top left; transform: rotate(808deg); width: 106.19999999999999px; height: 1px; background: black; position: fixed; top: 148.5px; left: 720px;'></div><img src = 'Images/Dot.png' style = 'width: 7.2px; position: fixed; left: 745.4580313769488px; top: 65.06371493802924px'></img><img src = 'Images/Heap.png' style = 'width: 72px; position: fixed; left: 864px; bottom: 87.75px'></img><img src= Images/Bulbfish.png style = 'width: 48px; position: fixed; left: 1500.0000000000025px; bottom: 90px'></img><img src = 'Images/Cage.png' style = 'width: 144px; position: fixed; left: 648px; top: 746.9999999999986px'></img>","null","html-keyboard-response","75","149431","0.0-3.0-0.0-3.75-0.7599","1","true","0","1","1","70","2","Images/Bulbfish.png","0.625","900","0.5","0"
"200","<img src = 'Images/Feedback.png' style = 'width: 1440px; position: fixed; left: 0px; top: 0px'></img><img src= Images/Seahorse.png style = 'width: 48px; position: fixed; left: 696px; bottom: 729px'></img><div class = 'line' style = 'transform-origin: top left; transform: rotate(1010deg); width: 106.19999999999999px; height: 1px; background: black; position: fixed; top: 148.5px; left: 720px;'></div><img src = 'Images/Dot.png' style = 'width: 7.2px; position: fixed; left: 745.4580313769488px; top: 65.06371493802924px'></img><img src = 'Images/Heap.png' style = 'width: 72px; position: fixed; left: 324px; bottom: 87.75px'></img><img src= Images/Seahorse.png style = 'width: 48px; position: fixed; left: -287.99999999999955px; bottom: 90px'></img><img src = 'Images/Cage.png' style = 'width: 144px; position: fixed; left: 648px; top: 746.9999999999986px'></img>","null","html-keyboard-response","76","151207","0.0-3.0-0.0-3.76-0.7699","1","true","0","1","1","70","4","Images/Seahorse.png","0.25","360","0.5","0"
"200","<img src = 'Images/Feedback.png' style = 'width: 1440px; position: fixed; left: 0px; top: 0px'></img><img src= Images/HighFish.png style = 'width: 48px; position: fixed; left: 696px; bottom: 729px'></img><div class = 'line' style = 'transform-origin: top left; transform: rotate(1212deg); width: 106.19999999999999px; height: 1px; background: black; position: fixed; top: 148.5px; left: 720px;'></div><img src = 'Images/Dot.png' style = 'width: 7.2px; position: fixed; left: 745.4580313769488px; top: 65.06371493802924px'></img><img src = 'Images/Heap.png' style = 'width: 72px; position: fixed; left: 144px; bottom: 87.75px'></img><img src= Images/HighFish.png style = 'width: 48px; position: fixed; left: -467.9999999999999px; bottom: 90px'></img><img src = 'Images/Cage.png' style = 'width: 144px; position: fixed; left: 648px; top: 746.9999999999986px'></img>","null","html-keyboard-response","77","153012","0.0-3.0-0.0-3.77-0.7799","1","true","0","1","1","70","5","Images/HighFish.png","0.125","180","0.5","0"
"200","<img src = 'Images/Feedback.png' style = 'width: 1440px; position: fixed; left: 0px; top: 0px'></img><img src= Images/crab.png style = 'width: 48px; position: fixed; left: 696px; bottom: 729px'></img><div class = 'line' style = 'transform-origin: top left; transform: rotate(1414deg); width: 106.19999999999999px; height: 1px; background: black; position: fixed; top: 148.5px; left: 720px;'></div><img src = 'Images/Dot.png' style = 'width: 7.2px; position: fixed; left: 745.4580313769488px; top: 65.06371493802924px'></img><img src = 'Images/Heap.png' style = 'width: 72px; position: fixed; left: 1044px; bottom: 87.75px'></img><img src= Images/crab.png style = 'width: 48px; position: fixed; left: 1680.0000000000055px; bottom: 90px'></img><img src = 'Images/Cage.png' style = 'width: 144px; position: fixed; left: 648px; top: 746.9999999999986px'></img>","null","html-keyboard-response","78","154789","0.0-3.0-0.0-3.78-0.7899","1","true","0","1","1","70","1","Images/crab.png","0.75","1080","0.5","0"
"200","<img src = 'Images/Feedback.png' style = 'width: 1440px; position: fixed; left: 0px; top: 0px'></img><img src= Images/Seahorse.png style = 'width: 48px; position: fixed; left: 696px; bottom: 729px'></img><div class = 'line' style = 'transform-origin: top left; transform: rotate(1616deg); width: 106.19999999999999px; height: 1px; background: black; position: fixed; top: 148.5px; left: 720px;'></div><img src = 'Images/Dot.png' style = 'width: 7.2px; position: fixed; left: 745.4580313769488px; top: 65.06371493802924px'></img><img src = 'Images/Heap.png' style = 'width: 72px; position: fixed; left: 324px; bottom: 87.75px'></img><img src= Images/Seahorse.png style = 'width: 48px; position: fixed; left: -287.99999999999955px; bottom: 90px'></img><img src = 'Images/Cage.png' style = 'width: 144px; position: fixed; left: 648px; top: 746.9999999999986px'></img>","null","html-keyboard-response","79","156563","0.0-3.0-0.0-3.79-0.7999","1","true","0","1","1","70","4","Images/Seahorse.png","0.25","360","0.5","0"
"200","<img src = 'Images/Feedback.png' style = 'width: 1440px; position: fixed; left: 0px; top: 0px'></img><img src= Images/Shell.png style = 'width: 48px; position: fixed; left: 696px; bottom: 729px'></img><div class = 'line' style = 'transform-origin: top left; transform: rotate(1818deg); width: 106.19999999999999px; height: 1px; background: black; position: fixed; top: 148.5px; left: 720px;'></div><img src = 'Images/Dot.png' style = 'width: 7.2px; position: fixed; left: 745.4580313769488px; top: 65.06371493802924px'></img><img src = 'Images/Heap.png' style = 'width: 72px; position: fixed; left: 504px; bottom: 87.75px'></img><img src= Images/Shell.png style = 'width: 48px; position: fixed; left: -107.99999999999932px; bottom: 90px'></img><img src = 'Images/Cage.png' style = 'width: 144px; position: fixed; left: 648px; top: 746.9999999999986px'></img>","null","html-keyboard-response","80","158349","0.0-3.0-0.0-3.80-0.8099","1","true","0","1","1","70","3","Images/Shell.png","0.375","540","0.5","0"
"200","<img src = 'Images/Feedback.png' style = 'width: 1440px; position: fixed; left: 0px; top: 0px'></img><img src= Images/Bulbfish.png style = 'width: 48px; position: fixed; left: 696px; bottom: 729px'></img><div class = 'line' style = 'transform-origin: top left; transform: rotate(2020deg); width: 106.19999999999999px; height: 1px; background: black; position: fixed; top: 148.5px; left: 720px;'></div><img src = 'Images/Dot.png' style = 'width: 7.2px; position: fixed; left: 745.4580313769488px; top: 65.06371493802924px'></img><img src = 'Images/Heap.png' style = 'width: 72px; position: fixed; left: 864px; bottom: 87.75px'></img><img src= Images/Bulbfish.png style = 'width: 48px; position: fixed; left: 1500.0000000000025px; bottom: 90px'></img><img src = 'Images/Cage.png' style = 'width: 144px; position: fixed; left: 648px; top: 746.9999999999986px'></img>","null","html-keyboard-response","81","160122","0.0-3.0-0.0-3.81-0.8199","1","true","0","1","1","70","2","Images/Bulbfish.png","0.625","900","0.5","0"
"200","<img src = 'Images/Feedback.png' style = 'width: 1440px; position: fixed; left: 0px; top: 0px'></img><img src= Images/Seastar.png style = 'width: 48px; position: fixed; left: 696px; bottom: 729px'></img><div class = 'line' style = 'transform-origin: top left; transform: rotate(2222deg); width: 106.19999999999999px; height: 1px; background: black; position: fixed; top: 148.5px; left: 720px;'></div><img src = 'Images/Dot.png' style = 'width: 7.2px; position: fixed; left: 745.4580313769488px; top: 65.06371493802924px'></img><img src = 'Images/Heap.png' style = 'width: 72px; position: fixed; left: 1224px; bottom: 87.75px'></img><img src= Images/Seastar.png style = 'width: 48px; position: fixed; left: 1860.0000000000055px; bottom: 90px'></img><img src = 'Images/Cage.png' style = 'width: 144px; position: fixed; left: 648px; top: 746.9999999999986px'></img>","null","html-keyboard-response","82","161900","0.0-3.0-0.0-3.82-0.8299","1","true","0","1","1","70","0","Images/Seastar.png","0.875","1260","0.5","0"
"200","<img src = 'Images/Feedback.png' style = 'width: 1440px; position: fixed; left: 0px; top: 0px'></img><img src= Images/crab.png style = 'width: 48px; position: fixed; left: 696px; bottom: 729px'></img><div class = 'line' style = 'transform-origin: top left; transform: rotate(2424deg); width: 106.19999999999999px; height: 1px; background: black; position: fixed; top: 148.5px; left: 720px;'></div><img src = 'Images/Dot.png' style = 'width: 7.2px; position: fixed; left: 745.4580313769488px; top: 65.06371493802924px'></img><img src = 'Images/Heap.png' style = 'width: 72px; position: fixed; left: 1044px; bottom: 87.75px'></img><img src= Images/crab.png style = 'width: 48px; position: fixed; left: 1680.0000000000055px; bottom: 90px'></img><img src = 'Images/Cage.png' style = 'width: 144px; position: fixed; left: 648px; top: 746.9999999999986px'></img>","null","html-keyboard-response","83","163678","0.0-3.0-0.0-3.83-0.8399","1","true","0","1","1","70","1","Images/crab.png","0.75","1080","0.5","0"
"200","<img src = 'Images/Feedback.png' style = 'width: 1440px; position: fixed; left: 0px; top: 0px'></img><img src= Images/Seastar.png style = 'width: 48px; position: fixed; left: 696px; bottom: 729px'></img><div class = 'line' style = 'transform-origin: top left; transform: rotate(2626deg); width: 106.19999999999999px; height: 1px; background: black; position: fixed; top: 148.5px; left: 720px;'></div><img src = 'Images/Dot.png' style = 'width: 7.2px; position: fixed; left: 745.4580313769488px; top: 65.06371493802924px'></img><img src = 'Images/Heap.png' style = 'width: 72px; position: fixed; left: 1224px; bottom: 87.75px'></img><img src= Images/Seastar.png style = 'width: 48px; position: fixed; left: 1860.0000000000055px; bottom: 90px'></img><img src = 'Images/Cage.png' style = 'width: 144px; position: fixed; left: 648px; top: 746.9999999999986px'></img>","null","html-keyboard-response","84","165438","0.0-3.0-0.0-3.84-0.8499","1","true","0","1","1","70","0","Images/Seastar.png","0.875","1260","0.5","0"
"200","<img src = 'Images/Feedback.png' style = 'width: 1440px; position: fixed; left: 0px; top: 0px'></img><img src= Images/Seastar.png style = 'width: 48px; position: fixed; left: 696px; bottom: 729px'></img><div class = 'line' style = 'transform-origin: top left; transform: rotate(2828deg); width: 106.19999999999999px; height: 1px; background: black; position: fixed; top: 148.5px; left: 720px;'></div><img src = 'Images/Dot.png' style = 'width: 7.2px; position: fixed; left: 745.4580313769488px; top: 65.06371493802924px'></img><img src = 'Images/Heap.png' style = 'width: 72px; position: fixed; left: 1224px; bottom: 87.75px'></img><img src= Images/Seastar.png style = 'width: 48px; position: fixed; left: 1860.0000000000055px; bottom: 90px'></img><img src = 'Images/Cage.png' style = 'width: 144px; position: fixed; left: 648px; top: 746.9999999999986px'></img>","null","html-keyboard-response","85","167245","0.0-3.0-0.0-3.85-0.8599","1","true","0","1","1","70","0","Images/Seastar.png","0.875","1260","0.5","0"
"200","<img src = 'Images/Feedback.png' style = 'width: 1440px; position: fixed; left: 0px; top: 0px'></img><img src= Images/Seahorse.png style = 'width: 48px; position: fixed; left: 696px; bottom: 729px'></img><div class = 'line' style = 'transform-origin: top left; transform: rotate(3030deg); width: 106.19999999999999px; height: 1px; background: black; position: fixed; top: 148.5px; left: 720px;'></div><img src = 'Images/Dot.png' style = 'width: 7.2px; position: fixed; left: 745.4580313769488px; top: 65.06371493802924px'></img><img src = 'Images/Heap.png' style = 'width: 72px; position: fixed; left: 324px; bottom: 87.75px'></img><img src= Images/Seahorse.png style = 'width: 48px; position: fixed; left: -287.99999999999955px; bottom: 90px'></img><img src = 'Images/Cage.png' style = 'width: 144px; position: fixed; left: 648px; top: 746.9999999999986px'></img>","null","html-keyboard-response","86","169046","0.0-3.0-0.0-3.86-0.8699","1","true","0","1","1","70","4","Images/Seahorse.png","0.25","360","0.5","0"
"200","<img src = 'Images/Feedback.png' style = 'width: 1440px; position: fixed; left: 0px; top: 0px'></img><img src= Images/crab.png style = 'width: 48px; position: fixed; left: 696px; bottom: 729px'></img><div class = 'line' style = 'transform-origin: top left; transform: rotate(3232deg); width: 106.19999999999999px; height: 1px; background: black; position: fixed; top: 148.5px; left: 720px;'></div><img src = 'Images/Dot.png' style = 'width: 7.2px; position: fixed; left: 745.4580313769488px; top: 65.06371493802924px'></img><img src = 'Images/Heap.png' style = 'width: 72px; position: fixed; left: 1044px; bottom: 87.75px'></img><img src= Images/crab.png style = 'width: 48px; position: fixed; left: 1680.0000000000055px; bottom: 90px'></img><img src = 'Images/Cage.png' style = 'width: 144px; position: fixed; left: 648px; top: 746.9999999999986px'></img>","null","html-keyboard-response","87","170826","0.0-3.0-0.0-3.87-0.8799","1","true","0","1","1","70","1","Images/crab.png","0.75","1080","0.5","0"
"200","<img src = 'Images/Feedback.png' style = 'width: 1440px; position: fixed; left: 0px; top: 0px'></img><img src= Images/Shell.png style = 'width: 48px; position: fixed; left: 696px; bottom: 729px'></img><div class = 'line' style = 'transform-origin: top left; transform: rotate(3434deg); width: 106.19999999999999px; height: 1px; background: black; position: fixed; top: 148.5px; left: 720px;'></div><img src = 'Images/Dot.png' style = 'width: 7.2px; position: fixed; left: 745.4580313769488px; top: 65.06371493802924px'></img><img src = 'Images/Heap.png' style = 'width: 72px; position: fixed; left: 504px; bottom: 87.75px'></img><img src= Images/Shell.png style = 'width: 48px; position: fixed; left: -107.99999999999932px; bottom: 90px'></img><img src = 'Images/Cage.png' style = 'width: 144px; position: fixed; left: 648px; top: 746.9999999999986px'></img>","null","html-keyboard-response","88","172590","0.0-3.0-0.0-3.88-0.8899","1","true","0","1","1","70","3","Images/Shell.png","0.375","540","0.5","0"
"200","<img src = 'Images/Feedback.png' style = 'width: 1440px; position: fixed; left: 0px; top: 0px'></img><img src= Images/HighFish.png style = 'width: 48px; position: fixed; left: 696px; bottom: 729px'></img><div class = 'line' style = 'transform-origin: top left; transform: rotate(3636deg); width: 106.19999999999999px; height: 1px; background: black; position: fixed; top: 148.5px; left: 720px;'></div><img src = 'Images/Dot.png' style = 'width: 7.2px; position: fixed; left: 745.4580313769488px; top: 65.06371493802924px'></img><img src = 'Images/Heap.png' style = 'width: 72px; position: fixed; left: 144px; bottom: 87.75px'></img><img src= Images/HighFish.png style = 'width: 48px; position: fixed; left: -467.9999999999999px; bottom: 90px'></img><img src = 'Images/Cage.png' style = 'width: 144px; position: fixed; left: 648px; top: 746.9999999999986px'></img>","null","html-keyboard-response","89","174373","0.0-3.0-0.0-3.89-0.8999","1","true","0","1","1","70","5","Images/HighFish.png","0.125","180","0.5","0"
"200","<img src = 'Images/Feedback.png' style = 'width: 1440px; position: fixed; left: 0px; top: 0px'></img><img src= Images/crab.png style = 'width: 48px; position: fixed; left: 696px; bottom: 729px'></img><div class = 'line' style = 'transform-origin: top left; transform: rotate(202deg); width: 106.19999999999999px; height: 1px; background: black; position: fixed; top: 148.5px; left: 720px;'></div><img src = 'Images/Dot.png' style = 'width: 7.2px; position: fixed; left: 687.3419686230511px; top: 65.06371493802924px'></img><img src = 'Images/Heap.png' style = 'width: 72px; position: fixed; left: 1044px; bottom: 87.75px'></img><img src= Images/crab.png style = 'width: 48px; position: fixed; left: 1680.0000000000055px; bottom: 90px'></img><img src = 'Images/Cage.png' style = 'width: 144px; position: fixed; left: 648px; top: 746.9999999999986px'></img>","null","html-keyboard-response","90","177701","0.0-3.0-0.0-3.90-0.9099","1","true","0","1","0","110","1","Images/crab.png","0.75","1080","0.5","0"
"200","<img src = 'Images/Feedback.png' style = 'width: 1440px; position: fixed; left: 0px; top: 0px'></img><img src= Images/Seahorse.png style = 'width: 48px; position: fixed; left: 696px; bottom: 729px'></img><div class = 'line' style = 'transform-origin: top left; transform: rotate(404deg); width: 106.19999999999999px; height: 1px; background: black; position: fixed; top: 148.5px; left: 720px;'></div><img src = 'Images/Dot.png' style = 'width: 7.2px; position: fixed; left: 687.3419686230511px; top: 65.06371493802924px'></img><img src = 'Images/Heap.png' style = 'width: 72px; position: fixed; left: 324px; bottom: 87.75px'></img><img src= Images/Seahorse.png style = 'width: 48px; position: fixed; left: -287.99999999999955px; bottom: 90px'></img><img src = 'Images/Cage.png' style = 'width: 144px; position: fixed; left: 648px; top: 746.9999999999986px'></img>","null","html-keyboard-response","91","179443","0.0-3.0-0.0-3.91-0.9199","1","true","0","1","0","110","4","Images/Seahorse.png","0.25","360","0.5","0"
"200","<img src = 'Images/Feedback.png' style = 'width: 1440px; position: fixed; left: 0px; top: 0px'></img><img src= Images/HighFish.png style = 'width: 48px; position: fixed; left: 696px; bottom: 729px'></img><div class = 'line' style = 'transform-origin: top left; transform: rotate(606deg); width: 106.19999999999999px; height: 1px; background: black; position: fixed; top: 148.5px; left: 720px;'></div><img src = 'Images/Dot.png' style = 'width: 7.2px; position: fixed; left: 687.3419686230511px; top: 65.06371493802924px'></img><img src = 'Images/Heap.png' style = 'width: 72px; position: fixed; left: 144px; bottom: 87.75px'></img><img src= Images/HighFish.png style = 'width: 48px; position: fixed; left: -467.9999999999999px; bottom: 90px'></img><img src = 'Images/Cage.png' style = 'width: 144px; position: fixed; left: 648px; top: 746.9999999999986px'></img>","null","html-keyboard-response","92","181189","0.0-3.0-0.0-3.92-0.9299","1","true","0","1","0","110","5","Images/HighFish.png","0.125","180","0.5","0"
"200","<img src = 'Images/Feedback.png' style = 'width: 1440px; position: fixed; left: 0px; top: 0px'></img><img src= Images/Seastar.png style = 'width: 48px; position: fixed; left: 696px; bottom: 729px'></img><div class = 'line' style = 'transform-origin: top left; transform: rotate(808deg); width: 106.19999999999999px; height: 1px; background: black; position: fixed; top: 148.5px; left: 720px;'></div><img src = 'Images/Dot.png' style = 'width: 7.2px; position: fixed; left: 687.3419686230511px; top: 65.06371493802924px'></img><img src = 'Images/Heap.png' style = 'width: 72px; position: fixed; left: 1224px; bottom: 87.75px'></img><img src= Images/Seastar.png style = 'width: 48px; position: fixed; left: 1860.0000000000055px; bottom: 90px'></img><img src = 'Images/Cage.png' style = 'width: 144px; position: fixed; left: 648px; top: 746.9999999999986px'></img>","null","html-keyboard-response","93","182963","0.0-3.0-0.0-3.93-0.9399","1","true","0","1","0","110","0","Images/Seastar.png","0.875","1260","0.5","0"
"200","<img src = 'Images/Feedback.png' style = 'width: 1440px; position: fixed; left: 0px; top: 0px'></img><img src= Images/Shell.png style = 'width: 48px; position: fixed; left: 696px; bottom: 729px'></img><div class = 'line' style = 'transform-origin: top left; transform: rotate(1010deg); width: 106.19999999999999px; height: 1px; background: black; position: fixed; top: 148.5px; left: 720px;'></div><img src = 'Images/Dot.png' style = 'width: 7.2px; position: fixed; left: 687.3419686230511px; top: 65.06371493802924px'></img><img src = 'Images/Heap.png' style = 'width: 72px; position: fixed; left: 504px; bottom: 87.75px'></img><img src= Images/Shell.png style = 'width: 48px; position: fixed; left: -107.99999999999932px; bottom: 90px'></img><img src = 'Images/Cage.png' style = 'width: 144px; position: fixed; left: 648px; top: 746.9999999999986px'></img>","null","html-keyboard-response","94","184711","0.0-3.0-0.0-3.94-0.9499","1","true","0","1","0","110","3","Images/Shell.png","0.375","540","0.5","0"
"200","<img src = 'Images/Feedback.png' style = 'width: 1440px; position: fixed; left: 0px; top: 0px'></img><img src= Images/Seahorse.png style = 'width: 48px; position: fixed; left: 696px; bottom: 729px'></img><div class = 'line' style = 'transform-origin: top left; transform: rotate(1212deg); width: 106.19999999999999px; height: 1px; background: black; position: fixed; top: 148.5px; left: 720px;'></div><img src = 'Images/Dot.png' style = 'width: 7.2px; position: fixed; left: 687.3419686230511px; top: 65.06371493802924px'></img><img src = 'Images/Heap.png' style = 'width: 72px; position: fixed; left: 324px; bottom: 87.75px'></img><img src= Images/Seahorse.png style = 'width: 48px; position: fixed; left: -287.99999999999955px; bottom: 90px'></img><img src = 'Images/Cage.png' style = 'width: 144px; position: fixed; left: 648px; top: 746.9999999999986px'></img>","null","html-keyboard-response","95","186463","0.0-3.0-0.0-3.95-0.9599","1","true","0","1","0","110","4","Images/Seahorse.png","0.25","360","0.5","0"
"200","<img src = 'Images/Feedback.png' style = 'width: 1440px; position: fixed; left: 0px; top: 0px'></img><img src= Images/Shell.png style = 'width: 48px; position: fixed; left: 696px; bottom: 729px'></img><div class = 'line' style = 'transform-origin: top left; transform: rotate(1414deg); width: 106.19999999999999px; height: 1px; background: black; position: fixed; top: 148.5px; left: 720px;'></div><img src = 'Images/Dot.png' style = 'width: 7.2px; position: fixed; left: 687.3419686230511px; top: 65.06371493802924px'></img><img src = 'Images/Heap.png' style = 'width: 72px; position: fixed; left: 504px; bottom: 87.75px'></img><img src= Images/Shell.png style = 'width: 48px; position: fixed; left: -107.99999999999932px; bottom: 90px'></img><img src = 'Images/Cage.png' style = 'width: 144px; position: fixed; left: 648px; top: 746.9999999999986px'></img>","null","html-keyboard-response","96","188239","0.0-3.0-0.0-3.96-0.9699","1","true","0","1","0","110","3","Images/Shell.png","0.375","540","0.5","0"
